,LTime, LSensorID, LAccelX, LAccelY, LAccelZ, LGyroX, LGyroY, LGyroZ,RTime, RSensorID, RAccelX, RAccelY, RAccelZ, RGyroX, RGyroY, RGyroZ
195,2016-05-03 20:54:14 +0000,LC,12,7532,7968,5238,-2424,113,2016-05-03 20:44:11 +0000,RC,10532,6548,-280,351,-3476,8067
196,2016-05-03 20:54:14 +0000,LC,136,13224,8916,5989,-1355,704,2016-05-03 20:44:12 +0000,RC,11076,7712,-2680,-651,2233,6950
197,2016-05-03 20:54:15 +0000,LC,-1348,11760,9324,-1762,91,-613,2016-05-03 20:44:12 +0000,RC,17940,3744,-2768,1875,-544,3047
198,2016-05-03 20:54:15 +0000,LC,-576,12512,7544,2843,-2671,627,2016-05-03 20:44:12 +0000,RC,17588,1972,-4864,1493,-986,1830
199,2016-05-03 20:54:15 +0000,LC,-512,13464,8740,1564,-476,-607,2016-05-03 20:44:12 +0000,RC,20284,2748,-7132,1400,-1759,1572
200,2016-05-03 20:54:15 +0000,LC,-952,14500,8892,465,-5139,-397,2016-05-03 20:44:12 +0000,RC,20272,4984,-7676,-1570,-484,-1826
201,2016-05-03 20:54:15 +0000,LC,-272,15556,11040,-3594,-2199,857,2016-05-03 20:44:12 +0000,RC,17364,4232,-5752,381,2633,-6107
202,2016-05-03 20:54:15 +0000,LC,1296,14660,9684,-2721,306,1278,2016-05-03 20:44:12 +0000,RC,17944,5968,-5872,-1906,4359,-7487
203,2016-05-03 20:54:15 +0000,LC,-512,12256,9432,-1104,837,189,2016-05-03 20:44:13 +0000,RC,17212,9552,-2540,-5744,5225,-10514
204,2016-05-03 20:54:16 +0000,LC,984,12304,9840,24,1029,1543,2016-05-03 20:44:13 +0000,RC,8812,14932,-844,-7357,6949,-16345
205,2016-05-03 20:54:16 +0000,LC,1056,12720,9088,1998,1727,1289,2016-05-03 20:44:13 +0000,RC,2360,7624,5404,-4282,11204,-16507
206,2016-05-03 20:54:16 +0000,LC,1092,14316,8784,356,-119,94,2016-05-03 20:44:13 +0000,RC,8180,15608,2820,-1768,4452,849
207,2016-05-03 20:54:16 +0000,LC,484,12120,7404,-4344,701,-2111,2016-05-03 20:44:13 +0000,RC,2384,17856,2808,-409,3921,-1974
208,2016-05-03 20:54:16 +0000,LC,1008,9164,6640,-2167,3148,2706,2016-05-03 20:44:13 +0000,RC,1304,14968,4488,-318,755,-94
209,2016-05-03 20:54:16 +0000,LC,748,9688,7496,673,-1697,-1054,2016-05-03 20:44:13 +0000,RC,6120,14388,5180,204,-4573,2927
210,2016-05-03 20:54:17 +0000,LC,116,13072,9340,2484,-1848,605,2016-05-03 20:44:14 +0000,RC,10328,12468,4856,2375,-3405,5882
211,2016-05-03 20:54:17 +0000,LC,112,12416,8668,-397,-431,1100,2016-05-03 20:44:14 +0000,RC,5196,14108,4064,228,-3218,5125
212,2016-05-03 20:54:17 +0000,LC,180,10816,6640,6,-1131,-913,2016-05-03 20:44:14 +0000,RC,9748,14644,2284,3162,-3954,5105
213,2016-05-03 20:54:17 +0000,LC,1416,10276,7340,-1829,1156,2061,2016-05-03 20:44:14 +0000,RC,9412,12888,-2484,2687,727,7326
214,2016-05-03 20:54:17 +0000,LC,-2256,10892,4124,-4119,102,-3826,2016-05-03 20:44:14 +0000,RC,10524,10916,-1636,3393,-625,8115
215,2016-05-03 20:54:17 +0000,LC,4,10340,9148,4089,-605,540,2016-05-03 20:44:14 +0000,RC,9844,6172,-2244,4477,-1725,7370
216,2016-05-03 20:54:17 +0000,LC,-1084,13216,9116,3754,311,-2682,2016-05-03 20:44:15 +0000,RC,10864,4224,-2876,1483,-2833,5161
217,2016-05-03 20:54:18 +0000,LC,-1496,14844,8516,336,-2718,-328,2016-05-03 20:44:15 +0000,RC,12064,5892,-4520,-9,155,3853
218,2016-05-03 20:54:18 +0000,LC,380,15408,8628,-2077,-3243,-1239,2016-05-03 20:44:15 +0000,RC,19168,4544,-8376,1982,-736,4444
219,2016-05-03 20:54:18 +0000,LC,1132,14844,9540,-1204,-4027,155,2016-05-03 20:44:15 +0000,RC,15576,1744,-7956,1953,-903,751
220,2016-05-03 20:54:18 +0000,LC,1228,14704,9284,-1870,-1549,2368,2016-05-03 20:44:15 +0000,RC,16216,1480,-6044,-690,702,-563
221,2016-05-03 20:54:18 +0000,LC,-220,13204,9924,-4660,-387,-747,2016-05-03 20:44:15 +0000,RC,17680,172,-5844,-1620,-2080,-4083
222,2016-05-03 20:54:18 +0000,LC,516,12184,12256,-4084,-2172,278,2016-05-03 20:44:15 +0000,RC,15756,4360,-6312,-969,1702,-6771
223,2016-05-03 20:54:18 +0000,LC,936,9724,11932,3850,-777,228,2016-05-03 20:44:16 +0000,RC,14868,5268,-5452,-2341,3385,-7288
224,2016-05-03 20:54:19 +0000,LC,-620,10652,10012,2246,1846,314,2016-05-03 20:44:16 +0000,RC,15584,10884,-6008,-3492,5785,-8443
225,2016-05-03 20:54:19 +0000,LC,316,12284,10440,-421,208,1354,2016-05-03 20:44:16 +0000,RC,13748,11744,-1796,-3687,4672,-10801
226,2016-05-03 20:54:19 +0000,LC,1240,12692,10536,801,1935,943,2016-05-03 20:44:16 +0000,RC,8988,13668,-760,-6004,2037,-18118
227,2016-05-03 20:54:19 +0000,LC,904,13012,11652,-2172,-140,629,2016-05-03 20:44:16 +0000,RC,10040,6972,2060,-3194,-3856,-3352
228,2016-05-03 20:54:19 +0000,LC,1120,8844,6132,938,1141,-79,2016-05-03 20:44:16 +0000,RC,6388,13928,4288,-540,-3780,2247
229,2016-05-03 20:54:19 +0000,LC,920,7996,6248,-690,-212,-95,2016-05-03 20:44:16 +0000,RC,1492,11360,7576,-45,-1963,922
230,2016-05-03 20:54:20 +0000,LC,-636,12904,11064,2328,-729,2376,2016-05-03 20:44:17 +0000,RC,8424,14016,6024,-1254,-1328,813
231,2016-05-03 20:54:20 +0000,LC,792,9644,9404,-6034,1988,1607,2016-05-03 20:44:17 +0000,RC,7944,16020,2824,1167,-288,2304
232,2016-05-03 20:54:20 +0000,LC,-1192,11728,8868,3274,-2291,-363,2016-05-03 20:44:17 +0000,RC,6800,14316,2808,1206,1232,3637
233,2016-05-03 20:54:20 +0000,LC,-256,9800,6980,2139,-359,-18,2016-05-03 20:44:17 +0000,RC,5400,13184,2820,750,-3259,3888
234,2016-05-03 20:54:20 +0000,LC,968,9808,6420,-426,-1420,45,2016-05-03 20:44:17 +0000,RC,7280,13752,212,1424,-1709,4749
235,2016-05-03 20:54:20 +0000,LC,-596,10916,9716,4751,-2744,523,2016-05-03 20:44:17 +0000,RC,9380,8832,2488,4816,-6692,10063
236,2016-05-03 20:54:20 +0000,LC,544,12640,7120,1281,-1013,-727,2016-05-03 20:44:18 +0000,RC,9912,8012,776,276,-3906,8105
237,2016-05-03 20:54:21 +0000,LC,-776,14180,7316,-1136,-487,93,2016-05-03 20:44:18 +0000,RC,14904,8136,-3964,2887,-4454,5964
238,2016-05-03 20:54:21 +0000,LC,2248,14848,10124,-53,-1387,-116,2016-05-03 20:44:18 +0000,RC,18816,5976,-5820,3560,-4123,3797
239,2016-05-03 20:54:21 +0000,LC,1812,11396,9612,-639,-2688,26,2016-05-03 20:44:18 +0000,RC,14260,3816,-6972,2850,-41,3671
240,2016-05-03 20:54:21 +0000,LC,-524,15576,9328,327,-1270,299,2016-05-03 20:44:18 +0000,RC,14848,2408,-6888,17,1354,2604
241,2016-05-03 20:54:21 +0000,LC,52,15872,9920,-1094,1152,1067,2016-05-03 20:44:18 +0000,RC,19428,2560,-6312,952,3040,2642
242,2016-05-03 20:54:21 +0000,LC,768,13976,9224,781,-4543,-1958,2016-05-03 20:44:18 +0000,RC,20572,2992,-6464,-1900,-1208,-1846
243,2016-05-03 20:54:22 +0000,LC,1416,12960,8460,-1883,-1921,-344,2016-05-03 20:44:19 +0000,RC,19004,5904,-8268,1668,1988,-6490
244,2016-05-03 20:54:22 +0000,LC,576,12336,9024,1072,-486,47,2016-05-03 20:44:19 +0000,RC,15700,9344,-9556,-7033,3667,-12259
245,2016-05-03 20:54:22 +0000,LC,-100,11396,9116,-3351,1568,-129,2016-05-03 20:44:19 +0000,RC,16212,8816,572,-5132,10427,-15331
246,2016-05-03 20:54:22 +0000,LC,468,12668,11568,2128,-295,583,2016-05-03 20:44:19 +0000,RC,3672,6132,2740,-5912,1870,-19915
247,2016-05-03 20:54:22 +0000,LC,1088,13172,11084,3095,1760,1122,2016-05-03 20:44:19 +0000,RC,4872,9588,3688,-2642,5061,1170
248,2016-05-03 20:54:22 +0000,LC,2152,10408,6892,2309,1583,448,2016-05-03 20:44:19 +0000,RC,80,18160,4664,-923,8179,1818
249,2016-05-03 20:54:22 +0000,LC,740,7356,2888,-206,1020,-1760,2016-05-03 20:44:20 +0000,RC,7156,13984,4968,360,199,1241
250,2016-05-03 20:54:23 +0000,LC,1052,12592,7048,-3815,909,2310,2016-05-03 20:44:20 +0000,RC,5196,15440,3316,-817,-1478,1769
251,2016-05-03 20:54:23 +0000,LC,1120,10372,8028,-2749,-172,-2494,2016-05-03 20:44:20 +0000,RC,4112,14904,5008,-716,-5108,1954
252,2016-05-03 20:54:23 +0000,LC,16,14136,9800,1892,-1470,162,2016-05-03 20:44:20 +0000,RC,5528,13812,3044,234,-2488,5308
253,2016-05-03 20:54:23 +0000,LC,-1240,10192,6420,5581,-2610,248,2016-05-03 20:44:20 +0000,RC,7756,12708,2680,3127,-5780,4649
254,2016-05-03 20:54:23 +0000,LC,460,10800,6068,-1026,-931,-356,2016-05-03 20:44:20 +0000,RC,13268,14160,232,3825,-4040,8367
255,2016-05-03 20:54:23 +0000,LC,2928,12984,7884,-689,-2350,691,2016-05-03 20:44:20 +0000,RC,15332,9560,1424,2693,-6459,6763
256,2016-05-03 20:54:23 +0000,LC,380,13432,7052,-2074,-1919,-1261,2016-05-03 20:44:21 +0000,RC,16184,10052,-516,-554,-7622,8069
257,2016-05-03 20:54:24 +0000,LC,664,13444,9024,1595,-1798,555,2016-05-03 20:44:21 +0000,RC,12600,5400,-3164,2886,-2916,6405
258,2016-05-03 20:54:24 +0000,LC,-1192,14192,5928,6086,-1478,303,2016-05-03 20:44:21 +0000,RC,13944,3116,-3172,83,-1509,5983
259,2016-05-03 20:54:24 +0000,LC,2400,14904,8044,3206,-1315,77,2016-05-03 20:44:21 +0000,RC,15620,4352,-4196,98,-4413,3333
260,2016-05-03 20:54:24 +0000,LC,1144,18228,7376,-3734,-478,975,2016-05-03 20:44:21 +0000,RC,16680,1576,-7344,1504,-2586,2716
261,2016-05-03 20:54:24 +0000,LC,848,18536,8004,-1562,-4969,-769,2016-05-03 20:44:21 +0000,RC,17204,-1068,-4968,2055,581,10
262,2016-05-03 20:54:24 +0000,LC,28,16328,5920,-1167,-1187,391,2016-05-03 20:44:21 +0000,RC,16532,1360,-6876,-465,585,-4153
263,2016-05-03 20:54:25 +0000,LC,788,13328,6552,-5028,-387,-1169,2016-05-03 20:44:22 +0000,RC,16512,3292,-7552,-2337,-861,-7308
264,2016-05-03 20:54:25 +0000,LC,2108,13520,8924,-7599,5020,1576,2016-05-03 20:44:22 +0000,RC,16500,4784,-2472,36,8994,-7813
265,2016-05-03 20:54:25 +0000,LC,556,13680,9724,-2085,785,1309,2016-05-03 20:44:22 +0000,RC,18560,10152,-1196,-5016,6433,-13833
266,2016-05-03 20:54:25 +0000,LC,-116,13564,11156,2847,-143,1023,2016-05-03 20:44:22 +0000,RC,8068,13136,1776,-5822,10134,-19916
267,2016-05-03 20:54:25 +0000,LC,220,14120,9368,5797,-582,1801,2016-05-03 20:44:22 +0000,RC,3476,1040,1284,-3390,-11232,-14988
268,2016-05-03 20:54:25 +0000,LC,628,8876,2656,2372,-354,-453,2016-05-03 20:44:22 +0000,RC,280,15252,1764,-1441,-4546,-2127
269,2016-05-03 20:54:25 +0000,LC,200,9288,5360,-5126,-115,111,2016-05-03 20:44:23 +0000,RC,3784,15980,5472,1107,2387,739
270,2016-05-03 20:54:26 +0000,LC,2740,11264,7040,3673,-2448,-3037,2016-05-03 20:44:23 +0000,RC,8664,14348,3888,-777,2065,1177
271,2016-05-03 20:54:26 +0000,LC,-348,14868,11316,-4717,2619,2587,2016-05-03 20:44:23 +0000,RC,5004,16404,4016,489,2007,1443
272,2016-05-03 20:54:26 +0000,LC,2540,7880,6796,4578,8406,-429,2016-05-03 20:44:23 +0000,RC,3708,15748,3236,1673,1184,2589
273,2016-05-03 20:54:26 +0000,LC,-4984,13208,1452,-2767,-3106,-2422,2016-05-03 20:44:23 +0000,RC,7392,15880,2368,3249,-1091,6281
274,2016-05-03 20:54:26 +0000,LC,-2864,13392,4380,-15,-845,836,2016-05-03 20:44:23 +0000,RC,7240,11128,2316,4067,-1055,5420
275,2016-05-03 20:54:26 +0000,LC,-760,11924,4764,-1885,1890,1349,2016-05-03 20:44:23 +0000,RC,12884,13908,-1468,2049,-8053,9023
276,2016-05-03 20:54:26 +0000,LC,0,12492,9316,-2458,-1678,-724,2016-05-03 20:44:24 +0000,RC,11740,8460,-1052,3002,1043,8461
277,2016-05-03 20:54:27 +0000,LC,-576,12080,9300,-2871,-65,-73,2016-05-03 20:44:24 +0000,RC,13508,5532,-4616,3065,-2826,9106
278,2016-05-03 20:54:27 +0000,LC,-624,11496,10084,316,-799,-1733,2016-05-03 20:44:24 +0000,RC,17556,5276,-6876,1004,-8524,4619
279,2016-05-03 20:54:27 +0000,LC,-756,12604,11344,1259,-558,1148,2016-05-03 20:44:24 +0000,RC,17168,-1656,-5280,2107,-1334,5081
280,2016-05-03 20:54:27 +0000,LC,668,12124,10436,2925,-2165,1154,2016-05-03 20:44:24 +0000,RC,16032,2220,-6336,-714,1277,2959
281,2016-05-03 20:54:27 +0000,LC,-1340,15736,10308,-16,-512,777,2016-05-03 20:44:24 +0000,RC,20012,1016,-11012,4037,-4043,5921
282,2016-05-03 20:54:27 +0000,LC,748,15456,8764,-1453,-4959,-1603,2016-05-03 20:44:24 +0000,RC,20488,-1960,-10080,-2130,-1064,-7545
283,2016-05-03 20:54:28 +0000,LC,1764,13968,9908,-955,-2644,-1171,2016-05-03 20:44:25 +0000,RC,19784,4508,-10836,-3290,1613,-8074
284,2016-05-03 20:54:28 +0000,LC,1008,12688,8672,-2217,-1305,-698,2016-05-03 20:44:25 +0000,RC,16208,5992,-6632,-7462,3141,-12727
285,2016-05-03 20:54:28 +0000,LC,2088,10244,9192,-1434,-666,1102,2016-05-03 20:44:25 +0000,RC,15912,9440,-1724,-4168,7411,-17911
286,2016-05-03 20:54:28 +0000,LC,-680,11748,9820,-180,1023,424,2016-05-03 20:44:25 +0000,RC,5444,7248,900,-5880,3403,-22034
287,2016-05-03 20:54:28 +0000,LC,1060,12448,12408,2557,628,992,2016-05-03 20:44:25 +0000,RC,6576,8872,972,-2618,-4271,-1350
288,2016-05-03 20:54:28 +0000,LC,572,12696,10196,3531,321,553,2016-05-03 20:44:25 +0000,RC,4936,16928,7304,-2276,1707,1377
289,2016-05-03 20:54:28 +0000,LC,-780,11668,5792,4043,198,2951,2016-05-03 20:44:26 +0000,RC,4592,14052,3080,437,3372,56
290,2016-05-03 20:54:29 +0000,LC,2068,6364,3144,-3212,203,-501,2016-05-03 20:44:26 +0000,RC,2936,14736,5124,-2105,-2485,-821
291,2016-05-03 20:54:29 +0000,LC,-84,16104,9832,1595,-530,1935,2016-05-03 20:44:26 +0000,RC,3172,15232,5492,-1090,-2433,431
292,2016-05-03 20:54:29 +0000,LC,1548,12136,7344,-1137,273,1361,2016-05-03 20:44:26 +0000,RC,6452,14876,5348,36,-1242,71
