,LTime, LSensorID, LAccelX, LAccelY, LAccelZ, LGyroX, LGyroY, LGyroZ,RTime, RSensorID, RAccelX, RAccelY, RAccelZ, RGyroX, RGyroY, RGyroZ
234,2016-05-05 00:57:31 +0000,LC,-1576,9240,9280,3141,-6777,477,2016-05-05 00:56:37 +0000,RC,-244,12376,9776,-1950,-817,-1350
235,2016-05-05 00:57:31 +0000,LC,-856,11216,10784,127,-130,-796,2016-05-05 00:56:37 +0000,RC,1296,14336,9628,204,-171,164
236,2016-05-05 00:57:31 +0000,LC,-2672,10992,11736,2227,-757,241,2016-05-05 00:57:31 +0000,RC,184,10836,12200,1238,1826,-30
237,2016-05-05 00:57:31 +0000,LC,-2328,12204,11712,716,-973,-654,2016-05-05 00:57:31 +0000,RC,552,12548,11592,-1942,-536,-544
238,2016-05-05 00:57:31 +0000,LC,-1952,12484,10448,1138,-670,448,2016-05-05 00:57:31 +0000,RC,-444,11808,12648,1082,403,217
239,2016-05-05 00:57:32 +0000,LC,-2204,12692,10340,-1589,1601,84,2016-05-05 00:57:31 +0000,RC,-608,13648,12288,2737,392,537
240,2016-05-05 00:57:32 +0000,LC,-3000,11976,11148,-2204,3385,-379,2016-05-05 00:57:32 +0000,RC,-400,12004,11288,-500,157,410
241,2016-05-05 00:57:32 +0000,LC,-3024,11448,11784,-7455,3800,421,2016-05-05 00:57:32 +0000,RC,328,13088,11784,-687,-249,199
242,2016-05-05 00:57:32 +0000,LC,-7448,13696,11676,-3779,-5228,1152,2016-05-05 00:57:32 +0000,RC,-20,13524,11092,1729,841,30
243,2016-05-05 00:57:32 +0000,LC,-3292,7860,11028,1338,-1099,-431,2016-05-05 00:57:32 +0000,RC,312,12852,12028,942,214,1222
244,2016-05-05 00:57:32 +0000,LC,-1408,7544,11316,465,-965,267,2016-05-05 00:57:32 +0000,RC,284,12704,10792,-3160,-2464,-1860
245,2016-05-05 00:57:33 +0000,LC,-3480,9232,10260,-578,-767,-307,2016-05-05 00:57:32 +0000,RC,1648,11064,10336,399,512,755
246,2016-05-05 00:57:33 +0000,LC,-3536,9016,11072,947,-674,343,2016-05-05 00:57:32 +0000,RC,1352,10604,11928,-1442,-1536,79
247,2016-05-05 00:57:33 +0000,LC,-3452,13536,8792,4457,915,373,2016-05-05 00:57:33 +0000,RC,-892,11092,12124,-1113,-232,-1317
248,2016-05-05 00:57:33 +0000,LC,-2908,9704,10504,-2150,2980,-1802,2016-05-05 00:57:33 +0000,RC,-28,11152,11376,-235,-653,-1086
249,2016-05-05 00:57:33 +0000,LC,-3520,10148,11900,-1974,361,511,2016-05-05 00:57:33 +0000,RC,280,11024,11624,-1749,-335,-64
250,2016-05-05 00:57:33 +0000,LC,-5280,11844,13268,-1005,-1118,1847,2016-05-05 00:57:33 +0000,RC,544,12688,11788,1890,175,-26
251,2016-05-05 00:57:33 +0000,LC,-3032,10072,10204,4016,-1211,2896,2016-05-05 00:57:33 +0000,RC,420,13136,12960,-1047,-769,-319
252,2016-05-05 00:57:34 +0000,LC,-968,5176,3432,-1577,-716,-1305,2016-05-05 00:57:33 +0000,RC,356,13340,13308,1250,-217,-736
253,2016-05-05 00:57:34 +0000,LC,-3124,12528,10484,327,-652,1183,2016-05-05 00:57:33 +0000,RC,1708,7992,5680,7859,772,2137
254,2016-05-05 00:57:34 +0000,LC,-2076,8192,7324,-3509,-1017,-1218,2016-05-05 00:57:34 +0000,RC,572,6568,7008,-4950,-434,-420
255,2016-05-05 00:57:34 +0000,LC,-1732,7808,8360,-65,-3176,-553,2016-05-05 00:57:34 +0000,RC,772,14872,10912,2564,805,-474
256,2016-05-05 00:57:34 +0000,LC,-1428,9404,8896,-1242,-6726,-957,2016-05-05 00:57:34 +0000,RC,-88,9588,7456,-4342,970,-1258
257,2016-05-05 00:57:34 +0000,LC,-2500,12228,10972,717,-1425,-1197,2016-05-05 00:57:34 +0000,RC,260,10452,8476,-404,1331,848
258,2016-05-05 00:57:34 +0000,LC,-1712,9424,10892,2577,542,-182,2016-05-05 00:57:34 +0000,RC,1664,13448,10992,1570,453,-558
259,2016-05-05 00:57:35 +0000,LC,-1492,12040,11556,-1383,-4906,2563,2016-05-05 00:57:34 +0000,RC,-236,12192,10812,-2668,691,309
260,2016-05-05 00:57:35 +0000,LC,88,10444,12160,3817,-388,-1075,2016-05-05 00:57:35 +0000,RC,-812,11060,11944,-2457,1565,-104
261,2016-05-05 00:57:35 +0000,LC,-1980,12016,12016,348,2021,703,2016-05-05 00:57:35 +0000,RC,-1088,12728,13296,2636,284,-39
262,2016-05-05 00:57:35 +0000,LC,-4128,12664,11320,-1449,-649,395,2016-05-05 00:57:35 +0000,RC,-204,13916,11752,-1792,-1144,165
263,2016-05-05 00:57:35 +0000,LC,-3368,13540,11248,-2210,7700,1577,2016-05-05 00:57:35 +0000,RC,-752,12880,12552,748,-63,740
264,2016-05-05 00:57:35 +0000,LC,-3564,11328,11280,-3140,-1352,-819,2016-05-05 00:57:35 +0000,RC,-960,13476,11624,1728,-221,642
265,2016-05-05 00:57:36 +0000,LC,-2668,10088,11396,1351,-1006,410,2016-05-05 00:57:35 +0000,RC,-1200,13532,12036,-40,222,-1095
266,2016-05-05 00:57:36 +0000,LC,-2028,8984,10856,-456,-539,99,2016-05-05 00:57:35 +0000,RC,-1268,13492,10656,-141,-86,-581
267,2016-05-05 00:57:36 +0000,LC,-3956,9864,10384,840,32,406,2016-05-05 00:57:36 +0000,RC,664,12700,9472,2582,-704,1036
268,2016-05-05 00:57:36 +0000,LC,-2764,9228,9888,1191,-2540,-417,2016-05-05 00:57:36 +0000,RC,160,11636,10048,-3208,-879,-2527
269,2016-05-05 00:57:36 +0000,LC,-3376,11960,11396,1925,-3136,-1491,2016-05-05 00:57:36 +0000,RC,768,13960,10096,-1977,-2788,-1255
270,2016-05-05 00:57:36 +0000,LC,-3508,9844,9320,1891,-1159,841,2016-05-05 00:57:36 +0000,RC,-640,12576,10504,-2636,-1735,482
271,2016-05-05 00:57:36 +0000,LC,-3296,11956,9528,-1304,2050,663,2016-05-05 00:57:36 +0000,RC,-984,12236,10856,-491,-639,-128
272,2016-05-05 00:57:37 +0000,LC,-3264,10876,11724,-2391,411,231,2016-05-05 00:57:36 +0000,RC,104,11276,10468,-2158,-1207,-11
273,2016-05-05 00:57:37 +0000,LC,-4736,11768,12796,852,-197,1298,2016-05-05 00:57:36 +0000,RC,-840,11448,12732,1940,1237,-58
274,2016-05-05 00:57:37 +0000,LC,-3092,9720,10380,3674,-2163,2564,2016-05-05 00:57:37 +0000,RC,336,12992,11880,-192,1304,-976
275,2016-05-05 00:57:37 +0000,LC,-1512,5212,3304,-911,339,-1960,2016-05-05 00:57:37 +0000,RC,48,14100,13816,2064,-1266,474
276,2016-05-05 00:57:37 +0000,LC,-3784,12688,9800,-3797,-865,798,2016-05-05 00:57:37 +0000,RC,1032,11860,10048,3310,-496,-354
277,2016-05-05 00:57:37 +0000,LC,-2076,8884,7604,-3172,-1490,-502,2016-05-05 00:57:37 +0000,RC,500,5500,3632,-1351,184,1516
278,2016-05-05 00:57:38 +0000,LC,-1544,6964,7440,-86,-2374,671,2016-05-05 00:57:37 +0000,RC,1864,15228,10132,-3018,293,-3308
279,2016-05-05 00:57:38 +0000,LC,-92,9112,9536,-5003,-3614,-749,2016-05-05 00:57:37 +0000,RC,236,10064,7828,-426,151,-662
280,2016-05-05 00:57:38 +0000,LC,-468,8500,13172,-342,-4437,-191,2016-05-05 00:57:38 +0000,RC,92,8664,6928,-1996,2288,-727
281,2016-05-05 00:57:38 +0000,LC,-1516,9384,10516,2511,-4143,640,2016-05-05 00:57:38 +0000,RC,-1000,9640,9796,-5276,1421,-2165
282,2016-05-05 00:57:38 +0000,LC,1964,9544,11800,-2811,1662,93,2016-05-05 00:57:38 +0000,RC,-1188,11552,12528,-2072,-347,136
283,2016-05-05 00:57:38 +0000,LC,-188,12444,12860,674,-1201,1325,2016-05-05 00:57:38 +0000,RC,-1268,11640,14144,-48,980,-3199
284,2016-05-05 00:57:38 +0000,LC,-1032,11024,12172,2074,-628,61,2016-05-05 00:57:38 +0000,RC,-1924,12220,12652,933,451,-616
285,2016-05-05 00:57:39 +0000,LC,-956,11324,12092,-1131,1303,329,2016-05-05 00:57:38 +0000,RC,532,14136,11332,-3324,-1841,-301
286,2016-05-05 00:57:39 +0000,LC,-860,11036,11268,405,1005,-329,2016-05-05 00:57:38 +0000,RC,-1276,12656,13324,609,-1284,1218
287,2016-05-05 00:57:39 +0000,LC,-2088,9956,13756,-3355,3821,389,2016-05-05 00:57:39 +0000,RC,-912,12332,12232,1082,-112,652
288,2016-05-05 00:57:39 +0000,LC,-3276,10932,11304,-3221,-187,-79,2016-05-05 00:57:39 +0000,RC,-1640,10812,12284,1291,463,1625
289,2016-05-05 00:57:39 +0000,LC,-2420,9464,9948,981,-129,-980,2016-05-05 00:57:39 +0000,RC,-1696,11856,11708,913,1020,-102
290,2016-05-05 00:57:39 +0000,LC,-2500,8532,11716,441,269,-252,2016-05-05 00:57:39 +0000,RC,-60,13928,10144,-1373,-817,-1286
291,2016-05-05 00:57:40 +0000,LC,-3292,8848,12316,-3480,-23,-222,2016-05-05 00:57:39 +0000,RC,-1848,12164,10852,-344,-682,470
292,2016-05-05 00:57:40 +0000,LC,-1260,8088,12752,806,-5757,-981,2016-05-05 00:57:39 +0000,RC,-160,12972,8624,1428,-1935,-1548
293,2016-05-05 00:57:40 +0000,LC,-2976,9108,10968,-1622,7,-819,2016-05-05 00:57:39 +0000,RC,-480,13012,10900,-8049,-2021,-2388
294,2016-05-05 00:57:40 +0000,LC,-2776,8156,11284,1723,-244,-1074,2016-05-05 00:57:40 +0000,RC,-992,12132,11644,-1087,-1040,50
295,2016-05-05 00:57:40 +0000,LC,-2024,8688,11664,209,-668,318,2016-05-05 00:57:40 +0000,RC,-640,10636,11144,-2124,-529,-49
296,2016-05-05 00:57:40 +0000,LC,-2924,10180,12344,-715,-478,859,2016-05-05 00:57:40 +0000,RC,-664,10356,12496,334,152,431
297,2016-05-05 00:57:41 +0000,LC,-2976,11436,13592,1612,-332,1466,2016-05-05 00:57:40 +0000,RC,324,11244,11060,1060,-878,109
298,2016-05-05 00:57:41 +0000,LC,-2596,11136,14140,3234,3343,2180,2016-05-05 00:57:40 +0000,RC,-864,10256,11856,747,1106,-268
299,2016-05-05 00:57:41 +0000,LC,-356,3348,3288,1396,645,1275,2016-05-05 00:57:40 +0000,RC,-20,11212,12172,1300,347,40
300,2016-05-05 00:57:41 +0000,LC,-2516,11780,8856,-8337,-86,1083,2016-05-05 00:57:41 +0000,RC,-936,12384,13428,290,404,-266
301,2016-05-05 00:57:41 +0000,LC,-2156,8316,11888,-1951,-173,-373,2016-05-05 00:57:41 +0000,RC,-1312,15024,14328,1445,-775,43
302,2016-05-05 00:57:41 +0000,LC,-3568,9648,11064,2631,-93,925,2016-05-05 00:57:41 +0000,RC,-412,6964,7336,6516,702,1040
303,2016-05-05 00:57:42 +0000,LC,-2376,8364,10156,-564,-786,-554,2016-05-05 00:57:41 +0000,RC,32,7560,7768,-4115,-717,-2134
304,2016-05-05 00:57:42 +0000,LC,-1572,7104,6672,-486,-1117,437,2016-05-05 00:57:41 +0000,RC,172,13364,10868,677,36,2601
305,2016-05-05 00:57:42 +0000,LC,-2076,7036,9020,-2426,-985,-968,2016-05-05 00:57:41 +0000,RC,116,12408,10832,923,-678,-689
306,2016-05-05 00:57:42 +0000,LC,-828,7944,12500,-2109,-5749,-130,2016-05-05 00:57:41 +0000,RC,-64,11476,9560,-1292,-56,-523
307,2016-05-05 00:57:42 +0000,LC,-504,7692,14048,322,-1966,639,2016-05-05 00:57:42 +0000,RC,-432,9580,8840,-2203,287,-22
308,2016-05-05 00:57:42 +0000,LC,256,8784,12740,2431,-1806,-191,2016-05-05 00:57:42 +0000,RC,20,8880,8324,-1552,679,-302
309,2016-05-05 00:57:43 +0000,LC,-416,9344,12808,1224,-439,-292,2016-05-05 00:57:42 +0000,RC,1444,10600,9708,-2219,1884,1414
310,2016-05-05 00:57:43 +0000,LC,-368,11416,12640,-417,-45,548,2016-05-05 00:57:42 +0000,RC,-624,12408,13424,-741,381,-513
311,2016-05-05 00:57:43 +0000,LC,-252,9564,14352,-852,420,499,2016-05-05 00:57:42 +0000,RC,-828,11796,12696,-253,97,-362
312,2016-05-05 00:57:43 +0000,LC,-948,8432,13336,-2964,-944,-53,2016-05-05 00:57:42 +0000,RC,-1380,12480,10912,795,-1023,640
313,2016-05-05 00:57:43 +0000,LC,820,7600,13672,-243,-84,368,2016-05-05 00:57:43 +0000,RC,-664,12556,11920,36,501,580
314,2016-05-05 00:57:43 +0000,LC,-1692,6656,11932,-2633,3969,723,2016-05-05 00:57:43 +0000,RC,-972,13200,12444,1268,-70,891
315,2016-05-05 00:57:43 +0000,LC,-1256,7908,12528,-482,497,101,2016-05-05 00:57:43 +0000,RC,-656,13252,11780,262,297,237
316,2016-05-05 00:57:44 +0000,LC,-896,7328,13020,-443,-1890,-909,2016-05-05 00:57:43 +0000,RC,-1560,13524,12268,-1829,-307,-439
317,2016-05-05 00:57:44 +0000,LC,-1496,8096,12768,-210,-1125,133,2016-05-05 00:57:43 +0000,RC,440,12768,10872,2708,1425,607
318,2016-05-05 00:57:44 +0000,LC,-1844,6120,13588,-922,-1674,235,2016-05-05 00:57:43 +0000,RC,-476,10140,10700,-3248,-308,-781
319,2016-05-05 00:57:44 +0000,LC,-2104,7220,12648,2767,-1413,-123,2016-05-05 00:57:43 +0000,RC,-748,10056,12856,-4006,221,-2370
320,2016-05-05 00:57:44 +0000,LC,-812,10000,11492,3525,957,135,2016-05-05 00:57:44 +0000,RC,-84,10684,11628,-198,-278,-427
321,2016-05-05 00:57:44 +0000,LC,-1732,8216,12468,-460,1299,-194,2016-05-05 00:57:44 +0000,RC,104,9956,12124,61,-1966,-14
322,2016-05-05 00:57:45 +0000,LC,-2904,11080,13040,-485,2841,2640,2016-05-05 00:57:44 +0000,RC,668,10760,12648,-1576,-2125,306
323,2016-05-05 00:57:45 +0000,LC,-2732,10520,15396,1090,-223,1614,2016-05-05 00:57:44 +0000,RC,292,11512,12180,1393,-1568,257
324,2016-05-05 00:57:45 +0000,LC,-1636,2360,5188,5694,3681,-2704,2016-05-05 00:57:44 +0000,RC,-116,10248,11428,3262,464,-278
325,2016-05-05 00:57:45 +0000,LC,-3284,11692,9904,-9016,-575,3816,2016-05-05 00:57:44 +0000,RC,172,11904,11920,-93,999,-512
326,2016-05-05 00:57:45 +0000,LC,-2404,9052,10648,-2143,-671,-1778,2016-05-05 00:57:44 +0000,RC,1020,12492,13680,60,1221,588
327,2016-05-05 00:57:45 +0000,LC,-3600,9336,10776,374,-21,-284,2016-05-05 00:57:45 +0000,RC,-372,13468,13872,-1271,-629,-279
328,2016-05-05 00:57:46 +0000,LC,-4084,8464,11404,-875,-724,-778,2016-05-05 00:57:45 +0000,RC,776,12584,12168,5550,-312,10
329,2016-05-05 00:57:46 +0000,LC,-3700,7964,10768,-769,-1466,-553,2016-05-05 00:57:45 +0000,RC,336,4280,3824,858,-1415,7
330,2016-05-05 00:57:46 +0000,LC,-2432,7000,8672,392,-1438,38,2016-05-05 00:57:45 +0000,RC,-296,14220,10504,-4834,-563,-6023
331,2016-05-05 00:57:46 +0000,LC,-1668,5332,9020,-1624,-4001,-2819,2016-05-05 00:57:45 +0000,RC,-488,10592,10808,-2444,-834,456
332,2016-05-05 00:57:46 +0000,LC,828,6444,11748,1307,-9189,458,2016-05-05 00:57:45 +0000,RC,-40,12424,11092,964,-249,-624
333,2016-05-05 00:57:46 +0000,LC,452,8276,13244,2497,-6195,-28,2016-05-05 00:57:46 +0000,RC,276,11920,10524,-1387,-296,-598
334,2016-05-05 00:57:46 +0000,LC,176,9276,12632,321,-2084,193,2016-05-05 00:57:46 +0000,RC,-252,11300,10824,-841,-120,-391
335,2016-05-05 00:57:47 +0000,LC,188,9180,11260,910,2096,-380,2016-05-05 00:57:46 +0000,RC,-248,9316,8816,-2180,298,-408
336,2016-05-05 00:57:47 +0000,LC,432,9264,12556,-1161,-295,700,2016-05-05 00:57:46 +0000,RC,156,8424,9116,-2156,681,199
337,2016-05-05 00:57:47 +0000,LC,1368,10064,13376,684,636,326,2016-05-05 00:57:46 +0000,RC,68,10176,10872,-1256,3957,-507
338,2016-05-05 00:57:47 +0000,LC,-372,9976,12768,-96,1847,375,2016-05-05 00:57:46 +0000,RC,-828,11760,13844,-671,1645,1339
339,2016-05-05 00:57:47 +0000,LC,-1124,7660,11824,-1963,5177,-458,2016-05-05 00:57:46 +0000,RC,-168,12440,12360,2286,52,-512
340,2016-05-05 00:57:47 +0000,LC,-1304,8428,11688,-3054,-2931,-1060,2016-05-05 00:57:47 +0000,RC,-2244,10200,13112,352,985,276
341,2016-05-05 00:57:48 +0000,LC,-2108,8856,14524,2370,-958,1572,2016-05-05 00:57:47 +0000,RC,-1360,12156,11660,290,-627,103
342,2016-05-05 00:57:48 +0000,LC,-1620,7920,11672,-2779,720,1103,2016-05-05 00:57:47 +0000,RC,-728,12996,12464,-654,-915,471
343,2016-05-05 00:57:48 +0000,LC,-1148,6996,12572,-209,-1938,194,2016-05-05 00:57:47 +0000,RC,-1196,12624,12200,1058,497,1203
344,2016-05-05 00:57:48 +0000,LC,-1196,6712,12520,-1098,-2609,233,2016-05-05 00:57:47 +0000,RC,-616,12304,11268,1411,-594,1746
345,2016-05-05 00:57:48 +0000,LC,-1188,6356,12648,-1416,-1140,-302,2016-05-05 00:57:47 +0000,RC,-1264,13340,11548,-553,620,-617
346,2016-05-05 00:57:48 +0000,LC,-1004,7000,12940,-1418,-1207,-427,2016-05-05 00:57:47 +0000,RC,1388,14556,8012,3010,865,1367
347,2016-05-05 00:57:49 +0000,LC,-164,6620,13760,-644,369,45,2016-05-05 00:57:48 +0000,RC,-796,11896,7940,-2803,-578,3
348,2016-05-05 00:57:49 +0000,LC,-1140,7308,13680,1339,-1688,-1328,2016-05-05 00:57:48 +0000,RC,-88,12144,10940,-3387,-97,-445
349,2016-05-05 00:57:49 +0000,LC,-1232,7144,11828,262,235,-361,2016-05-05 00:57:48 +0000,RC,504,11252,11176,-5493,-1384,-913
350,2016-05-05 00:57:49 +0000,LC,-1468,7844,11928,491,-47,1133,2016-05-05 00:57:48 +0000,RC,288,10132,12364,-1617,-223,-528
351,2016-05-05 00:57:49 +0000,LC,688,7728,13508,64,-5366,104,2016-05-05 00:57:48 +0000,RC,48,8780,12640,-244,-375,-486
352,2016-05-05 00:57:49 +0000,LC,-652,9744,12988,-483,-949,451,2016-05-05 00:57:48 +0000,RC,-280,10076,12832,-1954,-1724,-579
353,2016-05-05 00:57:50 +0000,LC,-564,9068,12716,-1132,72,343,2016-05-05 00:57:49 +0000,RC,1040,10008,12956,-526,-645,135
354,2016-05-05 00:57:50 +0000,LC,-116,8908,13804,1149,-448,-95,2016-05-05 00:57:49 +0000,RC,1644,9420,12512,-143,-390,75
355,2016-05-05 00:57:50 +0000,LC,-272,11484,15172,2795,1062,645,2016-05-05 00:57:49 +0000,RC,-804,8112,12320,43,1227,6
356,2016-05-05 00:57:50 +0000,LC,-312,5536,6280,2036,1513,978,2016-05-05 00:57:49 +0000,RC,324,9072,13408,1173,531,-1264
357,2016-05-05 00:57:50 +0000,LC,-800,8008,7996,-3412,-901,936,2016-05-05 00:57:49 +0000,RC,1080,10204,12428,-1199,-544,-400
358,2016-05-05 00:57:50 +0000,LC,-1732,12092,11432,1517,-241,378,2016-05-05 00:57:49 +0000,RC,228,9336,12492,-1520,1170,-490
359,2016-05-05 00:57:51 +0000,LC,-124,9860,9704,-1536,-37,-676,2016-05-05 00:57:49 +0000,RC,756,10540,12944,-651,692,-906
360,2016-05-05 00:57:51 +0000,LC,1164,10812,10764,-955,-577,324,2016-05-05 00:57:50 +0000,RC,-316,10396,13032,265,-643,-278
361,2016-05-05 00:57:51 +0000,LC,812,9816,9236,-2661,407,-1357,2016-05-05 00:57:50 +0000,RC,32,11072,13932,244,-400,-40
362,2016-05-05 00:57:51 +0000,LC,448,10084,10924,1406,-484,-320,2016-05-05 00:57:50 +0000,RC,-164,12584,15456,3582,110,1198
363,2016-05-05 00:57:51 +0000,LC,-920,8008,10836,1970,412,-959,2016-05-05 00:57:50 +0000,RC,172,8656,9984,7634,835,386
364,2016-05-05 00:57:51 +0000,LC,-3916,10444,10168,-616,-90,270,2016-05-05 00:57:50 +0000,RC,-1372,6608,4628,517,-1223,-1505
365,2016-05-05 00:57:51 +0000,LC,-3668,9924,10124,-727,-157,381,2016-05-05 00:57:50 +0000,RC,-964,14748,10396,81,477,-2078
366,2016-05-05 00:57:52 +0000,LC,-2224,10072,10164,761,-940,1077,2016-05-05 00:57:50 +0000,RC,-1204,12848,8712,-1915,-231,-1289
367,2016-05-05 00:57:52 +0000,LC,-1864,9756,10888,-2225,-194,-553,2016-05-05 00:57:51 +0000,RC,264,12032,9820,-4949,-2660,-677
