,LTime, LSensorID, LAccelX, LAccelY, LAccelZ, LGyroX, LGyroY, LGyroZ,RTime, RSensorID, RAccelX, RAccelY, RAccelZ, RGyroX, RGyroY, RGyroZ
115,2016-05-05 00:56:19 +0000,LC,-1896,10884,10152,436,-432,861,2016-05-05 00:55:20 +0000,RC,2064,14384,7460,-1187,-680,59
116,2016-05-05 00:56:19 +0000,LC,-1736,11400,9560,268,-792,257,2016-05-05 00:56:19 +0000,RC,168,13772,8212,-1282,-257,-114
117,2016-05-05 00:56:20 +0000,LC,-1812,11484,9372,-2059,-363,-534,2016-05-05 00:56:19 +0000,RC,624,14044,8092,-708,-362,-197
118,2016-05-05 00:56:20 +0000,LC,-2080,11160,9888,-217,223,17,2016-05-05 00:56:19 +0000,RC,208,14492,8008,-110,-12,13
119,2016-05-05 00:56:20 +0000,LC,-2008,11032,10104,35,-655,-28,2016-05-05 00:56:20 +0000,RC,92,14172,8004,-1163,-102,-435
120,2016-05-05 00:56:20 +0000,LC,-1540,10296,9432,-2451,-256,68,2016-05-05 00:56:20 +0000,RC,76,13804,8416,-570,-213,-196
121,2016-05-05 00:56:20 +0000,LC,-796,8228,6864,461,-1357,502,2016-05-05 00:56:20 +0000,RC,140,13076,8116,-1571,-180,-459
122,2016-05-05 00:56:20 +0000,LC,-1916,8916,10140,-1438,100,-559,2016-05-05 00:56:20 +0000,RC,216,10212,6820,-3089,-442,-477
123,2016-05-05 00:56:20 +0000,LC,-1172,9024,9396,-190,-1530,-435,2016-05-05 00:56:20 +0000,RC,-104,11308,9424,-2185,-459,-239
124,2016-05-05 00:56:21 +0000,LC,-1456,9096,10400,14,-1919,-1525,2016-05-05 00:56:20 +0000,RC,1076,11028,9548,-3953,650,1049
125,2016-05-05 00:56:21 +0000,LC,-1252,12148,9012,3044,-3131,638,2016-05-05 00:56:21 +0000,RC,1056,11032,10644,-2448,1956,951
126,2016-05-05 00:56:21 +0000,LC,-2472,13856,11032,-338,68,-1049,2016-05-05 00:56:21 +0000,RC,-76,11260,11676,225,184,480
127,2016-05-05 00:56:21 +0000,LC,-3700,12928,11852,1149,1763,-478,2016-05-05 00:56:21 +0000,RC,12,11496,12020,-2210,739,448
128,2016-05-05 00:56:21 +0000,LC,-2328,13056,10908,305,51,420,2016-05-05 00:56:21 +0000,RC,824,12784,14332,1885,232,462
129,2016-05-05 00:56:21 +0000,LC,-2132,11696,11076,-105,217,234,2016-05-05 00:56:21 +0000,RC,468,12688,11752,-231,55,-166
130,2016-05-05 00:56:22 +0000,LC,-2732,14636,12188,-1311,1748,232,2016-05-05 00:56:21 +0000,RC,156,12848,12356,1369,6,845
131,2016-05-05 00:56:22 +0000,LC,-2440,11532,12036,-213,221,-120,2016-05-05 00:56:21 +0000,RC,124,14488,12492,-766,85,1140
132,2016-05-05 00:56:22 +0000,LC,-2768,10648,8872,1618,1861,711,2016-05-05 00:56:22 +0000,RC,476,14416,12800,-275,348,721
133,2016-05-05 00:56:22 +0000,LC,-3996,12700,9156,-132,281,686,2016-05-05 00:56:22 +0000,RC,1388,14160,11044,647,-1456,-2615
134,2016-05-05 00:56:22 +0000,LC,-4684,12704,9248,2330,-618,1086,2016-05-05 00:56:22 +0000,RC,832,11712,9660,-2032,-668,-171
135,2016-05-05 00:56:22 +0000,LC,-3304,14440,11376,-1762,1297,1390,2016-05-05 00:56:22 +0000,RC,-388,12992,11504,2004,471,365
136,2016-05-05 00:56:22 +0000,LC,-2440,7940,6128,-860,-838,1616,2016-05-05 00:56:22 +0000,RC,0,14472,12572,-1955,22,374
137,2016-05-05 00:56:23 +0000,LC,-1784,6776,4644,-1705,-1202,-48,2016-05-05 00:56:22 +0000,RC,744,13072,11148,4423,-1306,-689
138,2016-05-05 00:56:23 +0000,LC,-3384,12716,10104,-264,-667,-268,2016-05-05 00:56:23 +0000,RC,-316,6144,5324,1574,-141,663
139,2016-05-05 00:56:23 +0000,LC,-2320,10260,8228,-2259,-1865,-906,2016-05-05 00:56:23 +0000,RC,260,11832,8652,-5902,-207,-1249
140,2016-05-05 00:56:23 +0000,LC,-2136,9240,7716,-971,-791,-987,2016-05-05 00:56:23 +0000,RC,-56,11308,9128,201,6,690
141,2016-05-05 00:56:23 +0000,LC,-2544,7880,7740,-28,-860,-1022,2016-05-05 00:56:23 +0000,RC,372,12132,8812,-1625,412,77
142,2016-05-05 00:56:23 +0000,LC,-2032,8900,9264,-372,-1811,-546,2016-05-05 00:56:23 +0000,RC,228,9928,8076,-2120,849,-64
143,2016-05-05 00:56:23 +0000,LC,-3660,15460,9600,972,-6147,1990,2016-05-05 00:56:23 +0000,RC,804,10120,10336,-78,828,683
144,2016-05-05 00:56:24 +0000,LC,-1860,10232,8388,3929,-2001,559,2016-05-05 00:56:23 +0000,RC,-316,11544,11596,-2466,652,-361
145,2016-05-05 00:56:24 +0000,LC,-2196,12864,11256,-211,-1032,157,2016-05-05 00:56:24 +0000,RC,-628,10612,10516,-2562,1103,-409
146,2016-05-05 00:56:24 +0000,LC,-1316,12780,9780,3697,-293,1687,2016-05-05 00:56:24 +0000,RC,-1492,11532,11092,2705,76,452
147,2016-05-05 00:56:24 +0000,LC,-2340,14624,9612,-151,709,-190,2016-05-05 00:56:24 +0000,RC,-528,13540,14116,839,209,751
148,2016-05-05 00:56:24 +0000,LC,-2812,15216,9616,-369,403,-414,2016-05-05 00:56:24 +0000,RC,-532,13184,12484,1810,1074,504
149,2016-05-05 00:56:24 +0000,LC,-2692,15204,10812,-238,632,299,2016-05-05 00:56:24 +0000,RC,508,14168,10624,-1295,128,260
150,2016-05-05 00:56:25 +0000,LC,-3180,14524,10540,-2800,698,137,2016-05-05 00:56:24 +0000,RC,-96,14580,13148,1705,493,950
151,2016-05-05 00:56:25 +0000,LC,-2180,13092,9148,-6898,3386,-296,2016-05-05 00:56:24 +0000,RC,244,15328,12196,-660,-438,-577
152,2016-05-05 00:56:25 +0000,LC,-2252,9688,9416,1056,1057,101,2016-05-05 00:56:25 +0000,RC,536,14876,11768,-3867,-2292,-2025
153,2016-05-05 00:56:25 +0000,LC,-4092,10604,9928,937,-459,-577,2016-05-05 00:56:25 +0000,RC,816,10440,10472,-793,230,48
154,2016-05-05 00:56:25 +0000,LC,-3740,10860,10720,2875,-775,261,2016-05-05 00:56:25 +0000,RC,-576,10892,12460,-1858,-236,-1538
155,2016-05-05 00:56:25 +0000,LC,-5132,12248,11800,-1235,-2,814,2016-05-05 00:56:25 +0000,RC,-1216,12636,12000,1330,990,-1323
156,2016-05-05 00:56:25 +0000,LC,-3768,11880,9160,1882,-1488,3669,2016-05-05 00:56:25 +0000,RC,-192,14684,12640,427,807,-262
157,2016-05-05 00:56:26 +0000,LC,-504,4688,1624,3265,-1760,-612,2016-05-05 00:56:25 +0000,RC,-628,14164,12792,2359,-402,-176
158,2016-05-05 00:56:26 +0000,LC,-3500,15136,9324,-2023,-933,1386,2016-05-05 00:56:26 +0000,RC,176,6824,3248,6055,-397,1922
159,2016-05-05 00:56:26 +0000,LC,-1284,9848,6188,-2691,-1639,-671,2016-05-05 00:56:26 +0000,RC,-48,11076,7060,-5152,-1935,-2297
160,2016-05-05 00:56:26 +0000,LC,-2560,10068,7216,-1368,-1411,-1529,2016-05-05 00:56:26 +0000,RC,-80,11476,7552,-836,207,2213
161,2016-05-05 00:56:26 +0000,LC,-2484,8708,8516,-2759,-5103,-2422,2016-05-05 00:56:26 +0000,RC,208,12160,7600,-1981,38,-921
162,2016-05-05 00:56:26 +0000,LC,-1300,10480,8264,1235,-3236,61,2016-05-05 00:56:26 +0000,RC,436,10624,7112,-1677,971,-344
163,2016-05-05 00:56:27 +0000,LC,-2240,11704,10168,5105,-866,-722,2016-05-05 00:56:26 +0000,RC,728,10936,9752,-1913,1190,6
164,2016-05-05 00:56:27 +0000,LC,-2312,11532,10496,-24,-3024,-949,2016-05-05 00:56:26 +0000,RC,-924,12600,10312,394,602,-503
165,2016-05-05 00:56:27 +0000,LC,-1308,12552,9960,-662,-416,-266,2016-05-05 00:56:27 +0000,RC,-524,12120,11064,-2392,904,485
166,2016-05-05 00:56:27 +0000,LC,-1496,14824,9460,987,840,-484,2016-05-05 00:56:27 +0000,RC,512,14436,11664,-2636,440,-1665
167,2016-05-05 00:56:27 +0000,LC,-2532,13912,9792,3612,-897,371,2016-05-05 00:56:27 +0000,RC,-84,15336,10728,3133,259,582
168,2016-05-05 00:56:27 +0000,LC,-2612,13516,8564,1333,176,1127,2016-05-05 00:56:27 +0000,RC,-316,13632,11412,-1016,-741,495
169,2016-05-05 00:56:27 +0000,LC,-2440,14388,9380,-2019,2760,489,2016-05-05 00:56:27 +0000,RC,-1580,14116,11396,1583,268,614
170,2016-05-05 00:56:28 +0000,LC,-3468,14744,8904,-1578,1693,745,2016-05-05 00:56:27 +0000,RC,-900,13932,11160,-864,-638,1383
171,2016-05-05 00:56:28 +0000,LC,-3080,14212,9084,-1079,280,1035,2016-05-05 00:56:28 +0000,RC,-872,14164,11612,454,-41,361
172,2016-05-05 00:56:28 +0000,LC,-2152,13592,9212,-4512,771,1035,2016-05-05 00:56:28 +0000,RC,-900,14644,11168,1343,-302,378
173,2016-05-05 00:56:28 +0000,LC,-2332,10692,8056,679,60,-270,2016-05-05 00:56:28 +0000,RC,196,14708,9940,-2402,-2035,-646
174,2016-05-05 00:56:28 +0000,LC,-2860,11060,9240,-1732,-338,809,2016-05-05 00:56:28 +0000,RC,1068,10852,8604,4450,-224,1301
175,2016-05-05 00:56:28 +0000,LC,-3420,12088,8816,-586,-1138,-293,2016-05-05 00:56:28 +0000,RC,-728,13124,9592,-3652,-891,-748
176,2016-05-05 00:56:28 +0000,LC,-2404,11908,9644,1933,1568,537,2016-05-05 00:56:28 +0000,RC,40,13400,9368,-17,-1228,140
177,2016-05-05 00:56:29 +0000,LC,-4120,13512,11884,-4530,108,151,2016-05-05 00:56:28 +0000,RC,-272,13324,10900,-1102,-547,123
178,2016-05-05 00:56:29 +0000,LC,-1316,8944,7964,568,-1417,1174,2016-05-05 00:56:29 +0000,RC,-732,14520,10944,-134,762,625
179,2016-05-05 00:56:29 +0000,LC,-664,4784,2420,3520,-368,-1176,2016-05-05 00:56:29 +0000,RC,760,15320,12160,3685,-1489,-862
180,2016-05-05 00:56:29 +0000,LC,-4536,15008,10208,-283,-1514,396,2016-05-05 00:56:29 +0000,RC,1008,6096,3964,2289,76,930
181,2016-05-05 00:56:29 +0000,LC,-1780,10444,7444,-3530,-2296,-895,2016-05-05 00:56:29 +0000,RC,-1224,9480,7932,-4065,-2194,-4274
182,2016-05-05 00:56:29 +0000,LC,-1260,8000,6080,1161,-3889,-629,2016-05-05 00:56:29 +0000,RC,228,12184,7920,431,528,1279
183,2016-05-05 00:56:30 +0000,LC,-380,8452,8636,-6020,-2079,-543,2016-05-05 00:56:29 +0000,RC,120,11460,6848,-2323,806,-412
184,2016-05-05 00:56:30 +0000,LC,-840,8580,11444,-1732,-1838,-1723,2016-05-05 00:56:29 +0000,RC,-744,10376,6576,-1856,1096,-707
185,2016-05-05 00:56:30 +0000,LC,-2124,9344,10456,5580,-1677,-2031,2016-05-05 00:56:30 +0000,RC,-128,11724,9352,-2738,701,-384
186,2016-05-05 00:56:30 +0000,LC,-1416,11800,11444,-670,180,-265,2016-05-05 00:56:30 +0000,RC,-1556,11196,11420,-2654,2007,-71
187,2016-05-05 00:56:30 +0000,LC,-1512,10760,11096,2291,727,264,2016-05-05 00:56:30 +0000,RC,-1864,11668,12396,-775,-718,-361
188,2016-05-05 00:56:30 +0000,LC,-1704,13904,10140,2284,-635,262,2016-05-05 00:56:30 +0000,RC,-1232,11724,12676,-122,8,525
189,2016-05-05 00:56:30 +0000,LC,-2796,12888,9872,1103,-102,34,2016-05-05 00:56:30 +0000,RC,-2076,12136,13132,808,1629,838
190,2016-05-05 00:56:31 +0000,LC,-2676,12988,9592,-980,699,778,2016-05-05 00:56:30 +0000,RC,-1692,12212,12312,-187,101,27
191,2016-05-05 00:56:31 +0000,LC,-3672,13332,10508,-595,4545,-145,2016-05-05 00:56:31 +0000,RC,-1880,13952,12628,909,-61,930
192,2016-05-05 00:56:31 +0000,LC,-2960,13480,10956,-5516,1167,2433,2016-05-05 00:56:31 +0000,RC,-1240,12304,11308,1035,974,601
193,2016-05-05 00:56:31 +0000,LC,-2968,10420,10876,-6557,2565,1678,2016-05-05 00:56:31 +0000,RC,-1392,14076,11756,3924,589,1227
194,2016-05-05 00:56:31 +0000,LC,-2960,8780,10624,1441,1002,919,2016-05-05 00:56:31 +0000,RC,-1180,13656,12052,-872,-712,-768
195,2016-05-05 00:56:31 +0000,LC,-3528,9172,9452,517,-256,-255,2016-05-05 00:56:31 +0000,RC,448,12932,9708,-80,-1173,-347
196,2016-05-05 00:56:31 +0000,LC,-3248,9808,10044,1343,-2471,-135,2016-05-05 00:56:31 +0000,RC,132,12512,9652,-2595,-702,-189
197,2016-05-05 00:56:32 +0000,LC,-3436,10260,9336,2012,-2884,-632,2016-05-05 00:56:31 +0000,RC,-540,12152,10620,-2148,-663,-554
198,2016-05-05 00:56:32 +0000,LC,-2240,9636,11544,1637,758,-375,2016-05-05 00:56:32 +0000,RC,476,12476,10188,-680,-731,-340
199,2016-05-05 00:56:32 +0000,LC,-3780,9988,10744,-2529,2908,193,2016-05-05 00:56:32 +0000,RC,772,14224,10056,-10,-2040,-413
200,2016-05-05 00:56:32 +0000,LC,-4704,11924,12596,-2334,-2561,355,2016-05-05 00:56:32 +0000,RC,988,13264,10212,-795,-351,-1079
201,2016-05-05 00:56:32 +0000,LC,-3780,10616,10620,4553,-2455,1667,2016-05-05 00:56:32 +0000,RC,-652,13676,12328,-574,-1176,-2047
202,2016-05-05 00:56:32 +0000,LC,-1180,5548,3616,2553,48,-585,2016-05-05 00:56:32 +0000,RC,-72,15208,12392,253,-532,-1249
203,2016-05-05 00:56:33 +0000,LC,-3184,12944,10120,-3949,90,-488,2016-05-05 00:56:32 +0000,RC,132,7188,6460,4299,-594,1306
204,2016-05-05 00:56:33 +0000,LC,-3060,9744,9376,-2929,-1011,-215,2016-05-05 00:56:32 +0000,RC,300,8592,7536,-3980,-1564,-1336
205,2016-05-05 00:56:33 +0000,LC,-2784,8796,8452,-192,-863,-961,2016-05-05 00:56:33 +0000,RC,240,13236,9488,307,-158,842
206,2016-05-05 00:56:33 +0000,LC,-2088,9040,7348,405,-2507,677,2016-05-05 00:56:33 +0000,RC,-124,13240,9564,-1997,66,-1139
207,2016-05-05 00:56:33 +0000,LC,-3040,6996,9060,878,-5095,-1039,2016-05-05 00:56:33 +0000,RC,-684,9120,7156,-1484,704,-595
208,2016-05-05 00:56:33 +0000,LC,-3912,13156,7960,8414,-7074,-2801,2016-05-05 00:56:33 +0000,RC,472,11624,9452,-1912,810,672
209,2016-05-05 00:56:33 +0000,LC,-1592,11864,8416,-917,-912,-788,2016-05-05 00:56:33 +0000,RC,-1372,9616,11476,-6540,811,-1881
210,2016-05-05 00:56:34 +0000,LC,-1536,13196,8400,2243,-1727,-1569,2016-05-05 00:56:33 +0000,RC,-2248,9700,11916,-3626,3066,1567
211,2016-05-05 00:56:34 +0000,LC,-2996,14508,9292,-4034,-2512,-190,2016-05-05 00:56:34 +0000,RC,-2664,11144,12868,7654,1110,2423
212,2016-05-05 00:56:34 +0000,LC,-2452,13992,9348,2299,-794,-150,2016-05-05 00:56:34 +0000,RC,-2200,11016,12952,-4050,1122,-1137
213,2016-05-05 00:56:34 +0000,LC,-2896,13788,9668,-2483,459,282,2016-05-05 00:56:34 +0000,RC,-2532,11244,13320,-134,724,364
214,2016-05-05 00:56:34 +0000,LC,-1832,11836,11428,-5060,932,900,2016-05-05 00:56:34 +0000,RC,-2620,11568,13088,1712,769,771
215,2016-05-05 00:56:34 +0000,LC,-4352,12608,9360,-5499,10280,3729,2016-05-05 00:56:34 +0000,RC,-1344,12020,13224,462,-588,1611
216,2016-05-05 00:56:34 +0000,LC,-5064,10240,10864,682,82,1193,2016-05-05 00:56:34 +0000,RC,-1912,12628,13104,1452,484,1210
217,2016-05-05 00:56:35 +0000,LC,-4640,12224,10744,823,-618,2165,2016-05-05 00:56:34 +0000,RC,-772,13368,11964,2411,-1349,1102
218,2016-05-05 00:56:35 +0000,LC,-2692,11284,10652,-2980,-2079,721,2016-05-05 00:56:35 +0000,RC,8,14148,10848,2937,-1267,954
219,2016-05-05 00:56:35 +0000,LC,-2864,9276,10200,1453,-716,317,2016-05-05 00:56:35 +0000,RC,-392,13012,10140,1410,970,280
220,2016-05-05 00:56:35 +0000,LC,-2252,9224,12132,-2028,-446,1395,2016-05-05 00:56:35 +0000,RC,1404,13632,9048,-3674,-2272,-1739
221,2016-05-05 00:56:35 +0000,LC,-4636,9152,10288,1488,-1311,238,2016-05-05 00:56:35 +0000,RC,72,11908,9464,313,348,-203
222,2016-05-05 00:56:35 +0000,LC,-2692,9232,9964,3379,-2090,-829,2016-05-05 00:56:35 +0000,RC,24,13028,11080,-4864,-2176,-3413
223,2016-05-05 00:56:36 +0000,LC,-400,9200,10700,1182,1878,312,2016-05-05 00:56:35 +0000,RC,-692,11564,11136,-806,236,-324
224,2016-05-05 00:56:36 +0000,LC,-3388,11384,10668,354,1094,234,2016-05-05 00:56:35 +0000,RC,-772,10684,10556,714,-1032,1716
225,2016-05-05 00:56:36 +0000,LC,-3496,12188,11728,192,288,393,2016-05-05 00:56:36 +0000,RC,-1380,10292,10944,-1371,-849,559
226,2016-05-05 00:56:36 +0000,LC,-4168,13896,12580,970,-308,1612,2016-05-05 00:56:36 +0000,RC,-936,12344,12172,1084,-779,552
227,2016-05-05 00:56:36 +0000,LC,-2520,9132,7868,4192,-1316,1731,2016-05-05 00:56:36 +0000,RC,-680,14232,13280,540,324,-820
228,2016-05-05 00:56:36 +0000,LC,-340,6140,3648,-395,-1721,-1205,2016-05-05 00:56:36 +0000,RC,-712,15212,13324,2684,-287,-390
229,2016-05-05 00:56:36 +0000,LC,-3408,15680,8280,854,-340,-1057,2016-05-05 00:56:36 +0000,RC,716,5288,4724,5189,-888,3142
230,2016-05-05 00:56:37 +0000,LC,-3032,12288,8656,-4244,-602,320,2016-05-05 00:56:36 +0000,RC,-896,12048,7664,-3476,-1331,-5452
231,2016-05-05 00:56:37 +0000,LC,-3004,10564,9100,-1279,-516,-1138,2016-05-05 00:56:37 +0000,RC,-2108,11292,7300,-655,-57,254
232,2016-05-05 00:56:37 +0000,LC,-2292,11680,10216,-79,-2499,-203,2016-05-05 00:56:37 +0000,RC,-1292,14384,9300,-1119,492,477
233,2016-05-05 00:56:37 +0000,LC,-128,11548,10252,-2097,-2080,-465,2016-05-05 00:56:37 +0000,RC,-888,13356,9832,-720,1794,-865
