,LTime, LSensorID, LAccelX, LAccelY, LAccelZ, LGyroX, LGyroY, LGyroZ,RTime, RSensorID, RAccelX, RAccelY, RAccelZ, RGyroX, RGyroY, RGyroZ
12,2016-05-05 00:55:04 +0000,LC,-1836,12248,8996,-554,-451,122,2016-05-05 00:55:04 +0000,RC,2700,14244,7496,-778,-190,41
13,2016-05-05 00:55:04 +0000,LC,-2052,12208,8868,-1083,-375,-160,2016-05-05 00:55:04 +0000,RC,2604,14128,7324,-763,39,56
14,2016-05-05 00:55:05 +0000,LC,-1944,12336,9036,-1372,-373,81,2016-05-05 00:55:05 +0000,RC,2692,14612,7628,-1174,212,-277
15,2016-05-05 00:55:05 +0000,LC,-1680,10256,7616,-2309,333,3,2016-05-05 00:55:05 +0000,RC,2112,12012,6508,-3771,-56,-54
16,2016-05-05 00:55:05 +0000,LC,-760,9044,6208,-2000,-494,-566,2016-05-05 00:55:05 +0000,RC,2012,10708,5688,-2892,173,71
17,2016-05-05 00:55:05 +0000,LC,-2924,8880,9736,-4146,-1356,-2162,2016-05-05 00:55:05 +0000,RC,2532,9556,9812,-5536,-439,1985
18,2016-05-05 00:55:05 +0000,LC,-2708,9632,9696,-987,-2198,-472,2016-05-05 00:55:05 +0000,RC,2080,10484,10164,-2930,1899,-523
19,2016-05-05 00:55:05 +0000,LC,-3512,10008,12288,-2916,-1607,-1333,2016-05-05 00:55:05 +0000,RC,2264,9836,13864,-5193,1714,287
20,2016-05-05 00:55:05 +0000,LC,-4348,11632,13804,3579,-1642,-1099,2016-05-05 00:55:05 +0000,RC,2484,11700,16448,-2446,-524,767
21,2016-05-05 00:55:06 +0000,LC,-2520,10112,11444,1743,1884,708,2016-05-05 00:55:06 +0000,RC,2068,10340,12856,5303,1353,-595
22,2016-05-05 00:55:06 +0000,LC,-3072,12108,11384,683,-392,-175,2016-05-05 00:55:06 +0000,RC,1172,11772,13196,-1482,-439,-98
23,2016-05-05 00:55:06 +0000,LC,-2556,11236,11312,2444,-890,379,2016-05-05 00:55:06 +0000,RC,2368,12048,13144,923,-916,295
24,2016-05-05 00:55:06 +0000,LC,-4188,13120,11524,-379,807,773,2016-05-05 00:55:06 +0000,RC,2496,13152,13444,2119,528,817
25,2016-05-05 00:55:06 +0000,LC,-4152,14780,12508,-960,1557,926,2016-05-05 00:55:06 +0000,RC,2232,14316,14688,-146,272,14
26,2016-05-05 00:55:06 +0000,LC,-3608,12372,9728,2655,-2282,1377,2016-05-05 00:55:06 +0000,RC,1940,12016,11136,4439,1612,-91
27,2016-05-05 00:55:07 +0000,LC,-3748,12460,8568,1933,2743,886,2016-05-05 00:55:06 +0000,RC,1892,13144,10624,2330,-1237,-175
28,2016-05-05 00:55:07 +0000,LC,-3896,13400,9528,545,-433,781,2016-05-05 00:55:07 +0000,RC,2432,14168,11556,877,-2639,-1518
29,2016-05-05 00:55:07 +0000,LC,-2184,6968,3308,1325,79,-697,2016-05-05 00:55:07 +0000,RC,1980,9344,6924,3072,-1282,-883
30,2016-05-05 00:55:07 +0000,LC,-2224,8424,4684,-4711,-749,-70,2016-05-05 00:55:07 +0000,RC,288,7776,5176,-1122,-19,358
31,2016-05-05 00:55:07 +0000,LC,-3120,13772,8312,2412,-1852,1029,2016-05-05 00:55:07 +0000,RC,1772,11984,7616,-2832,-523,-2855
32,2016-05-05 00:55:07 +0000,LC,-2508,11844,7168,-1538,-950,-380,2016-05-05 00:55:07 +0000,RC,2040,13252,8960,1,-149,680
33,2016-05-05 00:55:07 +0000,LC,-2680,9128,5748,-1609,-141,-1023,2016-05-05 00:55:07 +0000,RC,2112,11412,7412,-1227,956,815
34,2016-05-05 00:55:08 +0000,LC,-2876,8684,7572,-2522,-2323,-630,2016-05-05 00:55:08 +0000,RC,1396,8864,8056,-1685,-437,564
35,2016-05-05 00:55:08 +0000,LC,-3000,10884,8436,-984,-2260,-472,2016-05-05 00:55:08 +0000,RC,2240,11760,10124,-884,649,158
36,2016-05-05 00:55:08 +0000,LC,-2244,10980,8624,-2755,-2887,-17,2016-05-05 00:55:08 +0000,RC,2428,11764,8624,-2121,900,450
37,2016-05-05 00:55:08 +0000,LC,-2920,12256,13028,-2611,-4020,-515,2016-05-05 00:55:08 +0000,RC,2716,12448,12172,-3376,486,239
38,2016-05-05 00:55:08 +0000,LC,-2184,11136,13004,3164,-57,-469,2016-05-05 00:55:08 +0000,RC,3212,11924,13536,-709,-370,329
39,2016-05-05 00:55:08 +0000,LC,-2596,11760,11084,625,-1099,27,2016-05-05 00:55:08 +0000,RC,2252,12504,12576,2708,819,-307
40,2016-05-05 00:55:09 +0000,LC,-2912,12388,10828,680,-217,-242,2016-05-05 00:55:08 +0000,RC,2332,11704,11644,-1477,-381,-565
41,2016-05-05 00:55:09 +0000,LC,-2144,11048,11084,-1997,2825,-2101,2016-05-05 00:55:09 +0000,RC,5276,7908,1380,1539,-1356,-680
42,2016-05-05 00:55:09 +0000,LC,-4616,13580,10972,3099,644,852,2016-05-05 00:55:09 +0000,RC,3156,14324,13528,-1588,-1214,-1644
43,2016-05-05 00:55:09 +0000,LC,-4080,14080,10124,119,1000,938,2016-05-05 00:55:09 +0000,RC,688,14548,11964,-74,1628,32
44,2016-05-05 00:55:09 +0000,LC,-3944,12064,9384,-476,1090,1108,2016-05-05 00:55:09 +0000,RC,1252,13308,12572,186,-433,53
45,2016-05-05 00:55:09 +0000,LC,-4040,12928,9028,593,1512,1619,2016-05-05 00:55:09 +0000,RC,360,12828,11560,4483,-105,-206
46,2016-05-05 00:55:09 +0000,LC,-3964,13480,9212,1981,98,1631,2016-05-05 00:55:09 +0000,RC,848,14820,9904,297,-1410,-516
47,2016-05-05 00:55:10 +0000,LC,-3908,14120,9056,639,-639,1379,2016-05-05 00:55:09 +0000,RC,1540,15240,10444,334,-1561,278
48,2016-05-05 00:55:10 +0000,LC,-2096,7808,3172,955,-1469,417,2016-05-05 00:55:10 +0000,RC,2076,12028,7968,1574,-877,273
49,2016-05-05 00:55:10 +0000,LC,-1708,8084,4336,-6312,275,-1335,2016-05-05 00:55:10 +0000,RC,932,6604,3700,-776,-385,3102
50,2016-05-05 00:55:10 +0000,LC,-3528,12780,8336,3588,-641,733,2016-05-05 00:55:10 +0000,RC,2844,12788,9824,-4873,-930,-3533
51,2016-05-05 00:55:10 +0000,LC,-2668,13096,8788,-1868,-703,481,2016-05-05 00:55:10 +0000,RC,2448,11952,8508,2475,-597,351
52,2016-05-05 00:55:10 +0000,LC,-2420,10192,6548,-1716,-192,377,2016-05-05 00:55:10 +0000,RC,2980,13500,8148,-370,-200,-681
53,2016-05-05 00:55:10 +0000,LC,-2400,10464,6624,-1020,817,599,2016-05-05 00:55:10 +0000,RC,2128,10708,5996,-920,-684,-607
54,2016-05-05 00:55:11 +0000,LC,-1852,9764,9500,-4415,-4492,-258,2016-05-05 00:55:11 +0000,RC,2716,11100,8444,-2205,-1929,-338
55,2016-05-05 00:55:11 +0000,LC,-2732,9876,10252,-2377,-2130,-1213,2016-05-05 00:55:11 +0000,RC,3048,12120,9760,-2342,1229,-1556
56,2016-05-05 00:55:11 +0000,LC,-2716,10796,10304,80,-386,-455,2016-05-05 00:55:11 +0000,RC,2096,12040,10320,-2879,1603,-428
57,2016-05-05 00:55:11 +0000,LC,-2008,10324,10144,270,1484,-502,2016-05-05 00:55:11 +0000,RC,2172,11868,11416,-873,336,173
58,2016-05-05 00:55:11 +0000,LC,-2744,11100,10284,1097,-130,-549,2016-05-05 00:55:11 +0000,RC,2364,12080,11016,1432,789,213
59,2016-05-05 00:55:11 +0000,LC,-4284,11716,11692,2053,-208,231,2016-05-05 00:55:11 +0000,RC,2232,13672,11840,1075,905,673
60,2016-05-05 00:55:12 +0000,LC,-3628,12760,10460,730,-1011,35,2016-05-05 00:55:11 +0000,RC,2104,13540,11432,2215,-138,364
61,2016-05-05 00:55:12 +0000,LC,-3892,12976,10796,-301,-651,-351,2016-05-05 00:55:12 +0000,RC,2460,14124,10504,482,61,428
62,2016-05-05 00:55:12 +0000,LC,-4964,14988,11768,134,-155,-571,2016-05-05 00:55:12 +0000,RC,2364,15440,11720,-181,543,-579
63,2016-05-05 00:55:12 +0000,LC,-3456,12528,9744,643,-443,-556,2016-05-05 00:55:12 +0000,RC,2044,15564,11640,-462,292,-683
64,2016-05-05 00:55:12 +0000,LC,-3384,11740,9428,1960,-187,536,2016-05-05 00:55:12 +0000,RC,1968,13272,10464,-906,356,-263
65,2016-05-05 00:55:12 +0000,LC,-3020,12524,8672,995,407,668,2016-05-05 00:55:12 +0000,RC,1424,13276,10028,-292,-284,-1116
66,2016-05-05 00:55:12 +0000,LC,-4080,14024,9648,-894,845,269,2016-05-05 00:55:12 +0000,RC,1408,14132,10516,-198,-933,2
67,2016-05-05 00:55:13 +0000,LC,-2900,11248,7352,-632,-1089,1364,2016-05-05 00:55:12 +0000,RC,2208,14288,10296,560,-1013,227
68,2016-05-05 00:55:13 +0000,LC,-2128,6776,3644,-1596,-60,-1975,2016-05-05 00:55:13 +0000,RC,1856,10504,7732,282,-715,385
69,2016-05-05 00:55:13 +0000,LC,-4076,12348,8536,-1150,-1475,1894,2016-05-05 00:55:13 +0000,RC,1168,7696,4788,-2058,-543,1841
70,2016-05-05 00:55:13 +0000,LC,-3480,11332,8740,-1107,-676,311,2016-05-05 00:55:13 +0000,RC,2564,14052,9688,-483,442,-1950
71,2016-05-05 00:55:13 +0000,LC,-2912,10728,8912,-1491,-1124,-62,2016-05-05 00:55:13 +0000,RC,1896,12292,9596,-615,-23,547
72,2016-05-05 00:55:13 +0000,LC,-2532,9220,7752,-964,0,940,2016-05-05 00:55:13 +0000,RC,2296,11836,9504,-483,-140,462
73,2016-05-05 00:55:14 +0000,LC,-3404,9520,8348,-1091,-889,-380,2016-05-05 00:55:13 +0000,RC,2556,10560,8064,-1698,-1647,-1355
74,2016-05-05 00:55:14 +0000,LC,-2424,9620,9252,-2208,-2599,-1293,2016-05-05 00:55:14 +0000,RC,2412,10816,8372,-585,-548,291
75,2016-05-05 00:55:14 +0000,LC,-3136,10008,9764,-2754,-1221,-851,2016-05-05 00:55:14 +0000,RC,1648,10496,10924,-2975,1365,-543
76,2016-05-05 00:55:14 +0000,LC,-3092,10224,12100,-965,-312,-1125,2016-05-05 00:55:14 +0000,RC,1372,10588,10216,-1903,1959,-428
77,2016-05-05 00:55:14 +0000,LC,-3384,9908,10380,2094,-311,-434,2016-05-05 00:55:14 +0000,RC,2484,12048,11832,-612,-245,765
78,2016-05-05 00:55:14 +0000,LC,-3516,10480,11180,316,-263,-336,2016-05-05 00:55:14 +0000,RC,1076,11132,11832,3,525,-243
79,2016-05-05 00:55:14 +0000,LC,-3924,11260,11372,876,-338,-223,2016-05-05 00:55:14 +0000,RC,1460,12568,11876,726,169,536
80,2016-05-05 00:55:15 +0000,LC,-3572,10896,10860,272,423,194,2016-05-05 00:55:14 +0000,RC,1808,13572,12432,1303,-287,484
81,2016-05-05 00:55:15 +0000,LC,-4060,12700,11564,136,23,436,2016-05-05 00:55:15 +0000,RC,1240,12492,11460,49,142,743
82,2016-05-05 00:55:15 +0000,LC,-4704,13468,12848,-689,-854,901,2016-05-05 00:55:15 +0000,RC,2364,14544,11472,1776,569,775
83,2016-05-05 00:55:15 +0000,LC,-4460,12088,12528,390,-622,893,2016-05-05 00:55:15 +0000,RC,2464,14804,12800,-2021,-61,-614
84,2016-05-05 00:55:15 +0000,LC,-2624,11120,10112,2467,252,1405,2016-05-05 00:55:15 +0000,RC,2104,13984,13176,2526,1197,-491
85,2016-05-05 00:55:15 +0000,LC,-3420,11676,9664,2166,1256,1236,2016-05-05 00:55:15 +0000,RC,2136,12560,10600,2381,1051,-438
86,2016-05-05 00:55:15 +0000,LC,-3568,13024,11124,-1911,-55,760,2016-05-05 00:55:15 +0000,RC,1408,13840,10380,-986,-236,61
87,2016-05-05 00:55:16 +0000,LC,-2540,10912,7852,2109,-927,1657,2016-05-05 00:55:15 +0000,RC,2124,14604,11048,921,-1606,-527
88,2016-05-05 00:55:16 +0000,LC,-1524,5708,3432,2765,-161,-1980,2016-05-05 00:55:16 +0000,RC,2228,11976,8060,2159,-307,-900
89,2016-05-05 00:55:16 +0000,LC,-3048,12456,7368,-2896,-1813,2118,2016-05-05 00:55:16 +0000,RC,652,6560,4000,622,-725,1930
90,2016-05-05 00:55:16 +0000,LC,-2648,11328,7956,-1672,-49,-1012,2016-05-05 00:55:16 +0000,RC,2348,14076,8064,-1873,75,-3598
91,2016-05-05 00:55:16 +0000,LC,-3448,11888,8888,-1567,-1001,-643,2016-05-05 00:55:16 +0000,RC,1836,12660,7832,-879,271,128
92,2016-05-05 00:55:16 +0000,LC,-2244,8912,5844,-98,-1761,652,2016-05-05 00:55:16 +0000,RC,1964,13888,8568,-255,105,179
93,2016-05-05 00:55:17 +0000,LC,-2620,9608,8248,-1651,-592,266,2016-05-05 00:55:16 +0000,RC,1732,10080,7120,-2454,318,-209
94,2016-05-05 00:55:17 +0000,LC,-3544,10524,9976,-2290,-1338,-1982,2016-05-05 00:55:17 +0000,RC,1344,11476,8872,-2075,-601,-1094
95,2016-05-05 00:55:17 +0000,LC,-3372,9456,9328,1263,-1606,-439,2016-05-05 00:55:17 +0000,RC,3992,12988,9132,165,344,2744
96,2016-05-05 00:55:17 +0000,LC,-3628,10960,11560,-2826,-1455,-390,2016-05-05 00:55:17 +0000,RC,1980,11724,9364,-2794,791,-1533
97,2016-05-05 00:55:17 +0000,LC,-3160,10184,11084,640,-4943,872,2016-05-05 00:55:17 +0000,RC,2048,12840,11384,-570,1040,207
98,2016-05-05 00:55:17 +0000,LC,-2200,10880,10812,3508,-3256,15,2016-05-05 00:55:17 +0000,RC,2240,11848,11256,125,536,-439
99,2016-05-05 00:55:17 +0000,LC,-1852,14716,9884,6213,2279,386,2016-05-05 00:55:17 +0000,RC,1576,12772,11016,877,974,-404
100,2016-05-05 00:55:18 +0000,LC,-2672,13636,9440,906,1001,979,2016-05-05 00:55:17 +0000,RC,1132,13452,11584,724,272,-325
101,2016-05-05 00:55:18 +0000,LC,-2276,14516,8648,-668,839,1061,2016-05-05 00:55:18 +0000,RC,1488,14864,10720,1209,-4,373
102,2016-05-05 00:55:18 +0000,LC,-3544,16224,9628,-578,-666,897,2016-05-05 00:55:18 +0000,RC,2216,14852,10480,421,369,1001
103,2016-05-05 00:55:18 +0000,LC,-2548,14608,9020,97,-992,-359,2016-05-05 00:55:18 +0000,RC,2200,16248,11156,-20,1028,30
104,2016-05-05 00:55:18 +0000,LC,-808,12352,8364,2896,-1951,1042,2016-05-05 00:55:18 +0000,RC,1864,14864,10016,2057,740,21
105,2016-05-05 00:55:18 +0000,LC,-1764,15008,7404,1637,1823,186,2016-05-05 00:55:18 +0000,RC,1380,13552,8624,3470,1514,116
106,2016-05-05 00:55:18 +0000,LC,-2596,13944,8940,-2344,429,130,2016-05-05 00:55:18 +0000,RC,932,14772,8500,-574,124,-599
107,2016-05-05 00:55:19 +0000,LC,-1856,12464,6872,-146,-435,1909,2016-05-05 00:55:18 +0000,RC,380,14792,9964,-1154,-526,-65
108,2016-05-05 00:55:19 +0000,LC,-492,6440,2500,1655,107,-1559,2016-05-05 00:55:19 +0000,RC,1540,14760,9004,3040,-2410,-717
109,2016-05-05 00:55:19 +0000,LC,-2248,12280,6508,-4686,-1279,41,2016-05-05 00:55:19 +0000,RC,1104,7944,3144,638,-2840,1362
110,2016-05-05 00:55:19 +0000,LC,-2104,11888,6960,792,-799,182,2016-05-05 00:55:19 +0000,RC,728,11544,5772,-4071,-596,-2445
111,2016-05-05 00:55:19 +0000,LC,-2228,13012,8308,-774,-1428,-292,2016-05-05 00:55:19 +0000,RC,1200,13584,6556,1996,-1245,1243
112,2016-05-05 00:55:19 +0000,LC,-1996,12096,8252,-1974,-1080,-108,2016-05-05 00:55:19 +0000,RC,2332,14744,7824,-362,-370,-264
113,2016-05-05 00:55:20 +0000,LC,-2680,12936,8556,1725,-2215,996,2016-05-05 00:55:19 +0000,RC,2044,14244,7572,-2497,-168,-35
114,2016-05-05 00:55:20 +0000,LC,-1424,12564,8028,-1109,-80,-50,2016-05-05 00:55:20 +0000,RC,1768,14068,7204,2124,482,-187
