,LTime, LSensorID, LAccelX, LAccelY, LAccelZ, LGyroX, LGyroY, LGyroZ,RTime, RSensorID, RAccelX, RAccelY, RAccelZ, RGyroX, RGyroY, RGyroZ, 
0,2016-05-02 23:21:41 +0000,LC,1732,13812,5436,-2632,-8679,2720,2016-05-02 23:21:41 +0000,RC,-704,15944,6164,-4485,-6194,-4880,
1,2016-05-02 23:21:41 +0000,LC,1992,10580,8148,-701,-941,-1567,2016-05-02 23:21:41 +0000,RC,-72,15304,10604,-11824,-10216,-1625,
2,2016-05-02 23:21:41 +0000,LC,588,14388,10976,3521,447,1852,2016-05-02 23:21:41 +0000,RC,444,13204,13332,3391,-3119,414,
3,2016-05-02 23:21:41 +0000,LC,296,12676,7220,3577,44,975,2016-05-02 23:21:41 +0000,RC,292,12104,11140,663,-93,-503,
4,2016-05-02 23:21:42 +0000,LC,852,11644,5944,1681,-924,-1304,2016-05-02 23:21:42 +0000,RC,488,10944,8740,-1288,-603,1940,
5,2016-05-02 23:21:42 +0000,LC,880,12928,7140,-2373,-677,783,2016-05-02 23:21:42 +0000,RC,2060,12380,10036,1168,-2165,1549,
6,2016-05-02 23:21:42 +0000,LC,1512,12532,8144,-1114,-1004,458,2016-05-02 23:21:42 +0000,RC,3248,11848,9152,1366,-9,-851,
7,2016-05-02 23:21:42 +0000,LC,2156,11988,8420,-1483,-1075,604,2016-05-02 23:21:42 +0000,RC,3080,12696,8988,-2271,-1023,575,
8,2016-05-02 23:21:42 +0000,LC,-660,16228,8488,-420,-982,-3042,2016-05-02 23:21:42 +0000,RC,396,12964,11184,-1293,-2150,523,
9,2016-05-02 23:21:42 +0000,LC,-300,13052,6488,-1133,-643,-542,2016-05-02 23:21:42 +0000,RC,336,12300,9904,1456,-138,-821,
10,2016-05-02 23:21:42 +0000,LC,124,13272,6212,192,-691,2,2016-05-02 23:21:43 +0000,RC,-232,12224,9072,74,-1480,-1718,
11,2016-05-02 23:21:43 +0000,LC,1092,13104,7444,690,-1887,-412,2016-05-02 23:21:43 +0000,RC,2376,13348,10532,708,963,-528,
12,2016-05-02 23:21:43 +0000,LC,3400,13660,7844,-227,-659,-853,2016-05-02 23:21:43 +0000,RC,2928,13620,7664,2863,362,-1556,
13,2016-05-02 23:21:43 +0000,LC,1740,13760,7508,1170,-1738,285,2016-05-02 23:21:43 +0000,RC,1152,13772,9400,-947,-2080,362,
14,2016-05-02 23:21:43 +0000,LC,1972,12616,6692,-1785,-1116,1014,2016-05-02 23:21:43 +0000,RC,1376,12960,8880,1004,-1010,150,
15,2016-05-02 23:21:43 +0000,LC,752,12988,7744,-666,-1750,-259,2016-05-02 23:21:43 +0000,RC,-760,13100,10988,1201,-190,-237,
16,2016-05-02 23:21:43 +0000,LC,1708,13572,7900,-1154,1341,610,2016-05-02 23:21:43 +0000,RC,88,13556,9040,2597,722,-1253,
17,2016-05-02 23:21:44 +0000,LC,2004,13200,7504,237,218,252,2016-05-02 23:21:44 +0000,RC,1156,13340,8104,-1810,240,-608,
18,2016-05-02 23:21:44 +0000,LC,2436,12880,7968,1112,-1412,518,2016-05-02 23:21:44 +0000,RC,1088,13872,8820,-565,428,-1128,
19,2016-05-02 23:21:44 +0000,LC,2376,12944,7068,-181,-413,8,2016-05-02 23:21:44 +0000,RC,904,13720,7824,328,462,-506,
20,2016-05-02 23:21:44 +0000,LC,2000,13780,7300,337,-660,358,2016-05-02 23:21:44 +0000,RC,244,14228,8708,-713,-294,-241,
21,2016-05-02 23:21:44 +0000,LC,1492,13160,7324,-951,72,-616,2016-05-02 23:21:44 +0000,RC,308,13612,7924,672,-34,-494,
22,2016-05-02 23:21:44 +0000,LC,1724,13012,7168,-59,-547,386,2016-05-02 23:21:44 +0000,RC,468,13676,7964,-999,530,242,
23,2016-05-02 23:21:44 +0000,LC,1460,12532,7556,-116,-144,-511,2016-05-02 23:21:44 +0000,RC,544,13080,8892,-1477,22,846,
24,2016-05-02 23:21:45 +0000,LC,1080,12580,6228,223,-982,13,2016-05-02 23:21:45 +0000,RC,500,12532,8328,1994,751,327,
25,2016-05-02 23:21:45 +0000,LC,1280,12524,6712,-1472,401,-628,2016-05-02 23:21:45 +0000,RC,512,12596,7476,-1539,578,600,
26,2016-05-02 23:21:45 +0000,LC,1440,12284,6768,1239,-1380,-658,2016-05-02 23:21:45 +0000,RC,876,12932,7844,868,1099,741,
27,2016-05-02 23:21:45 +0000,LC,1056,12528,5964,1009,-1111,-203,2016-05-02 23:21:45 +0000,RC,368,12880,7804,94,455,993,
28,2016-05-02 23:21:45 +0000,LC,1764,14256,6780,2009,-1297,576,2016-05-02 23:21:45 +0000,RC,792,14360,8280,1229,1590,565,
29,2016-05-02 23:21:45 +0000,LC,1768,14340,6356,-1203,-134,-1350,2016-05-02 23:21:45 +0000,RC,-812,15964,9480,-2492,54,-136,
30,2016-05-02 23:21:45 +0000,LC,1008,13192,6536,520,-62,-944,2016-05-02 23:21:46 +0000,RC,992,12764,8860,-254,994,144,
31,2016-05-02 23:21:46 +0000,LC,720,14720,6512,1944,-1132,661,2016-05-02 23:21:46 +0000,RC,1084,14560,9516,-561,430,94,
32,2016-05-02 23:21:46 +0000,LC,272,14712,5924,-1385,9,-657,2016-05-02 23:21:46 +0000,RC,932,13588,9776,-1674,-14,1472,
33,2016-05-02 23:21:46 +0000,LC,284,14432,6260,-891,-343,205,2016-05-02 23:21:46 +0000,RC,908,13508,10064,28,473,733,
34,2016-05-02 23:21:46 +0000,LC,148,15772,7236,402,-1272,731,2016-05-02 23:21:46 +0000,RC,1256,14332,10292,174,-262,1043,
35,2016-05-02 23:21:46 +0000,LC,1320,17244,7248,188,-1377,923,2016-05-02 23:21:46 +0000,RC,1668,15936,10572,1302,387,-106,
36,2016-05-02 23:21:46 +0000,LC,1632,16500,7252,-219,-1379,91,2016-05-02 23:21:46 +0000,RC,1952,15336,9740,66,-397,-457,
37,2016-05-02 23:21:47 +0000,LC,1156,15484,6160,-592,-659,-799,2016-05-02 23:21:47 +0000,RC,1468,14292,8796,234,-211,-1158,
38,2016-05-02 23:21:47 +0000,LC,852,15236,5712,426,-683,286,2016-05-02 23:21:47 +0000,RC,856,14292,8512,-433,-512,-860,
39,2016-05-02 23:21:47 +0000,LC,1360,14264,5764,-1226,75,-133,2016-05-02 23:21:47 +0000,RC,1332,14084,8308,123,-1168,-1050,
40,2016-05-02 23:21:47 +0000,LC,1144,14368,5728,-564,-622,652,2016-05-02 23:21:47 +0000,RC,816,14252,8436,-100,-880,-1110,
41,2016-05-02 23:21:47 +0000,LC,656,14124,5640,-1645,-139,-118,2016-05-02 23:21:47 +0000,RC,700,13484,8088,-1439,-731,61,
42,2016-05-02 23:21:47 +0000,LC,1056,12440,6960,-288,-1018,1105,2016-05-02 23:21:47 +0000,RC,1324,12264,9056,68,-414,-20,
43,2016-05-02 23:21:47 +0000,LC,1260,11496,4376,-1399,-371,-79,2016-05-02 23:21:47 +0000,RC,1476,11004,6512,1141,-68,-136,
44,2016-05-02 23:21:48 +0000,LC,1584,11200,5640,-4803,1520,-215,2016-05-02 23:21:48 +0000,RC,1188,11396,6944,-3982,-1661,122,
45,2016-05-02 23:21:48 +0000,LC,880,13736,7544,2186,-938,1075,2016-05-02 23:21:48 +0000,RC,1396,14052,9016,2516,-474,-1222,
46,2016-05-02 23:21:48 +0000,LC,860,13340,8172,902,-1743,517,2016-05-02 23:21:48 +0000,RC,1184,13860,8220,1894,639,-942,
47,2016-05-02 23:21:48 +0000,LC,1480,13188,5804,-1726,-308,-354,2016-05-02 23:21:48 +0000,RC,812,13676,6096,-2173,-959,559,
48,2016-05-02 23:21:48 +0000,LC,1812,11132,5724,-398,-1630,-866,2016-05-02 23:21:48 +0000,RC,340,11764,6996,377,1036,438,
49,2016-05-02 23:21:48 +0000,LC,-224,11740,4660,-769,-82,-1368,2016-05-02 23:21:48 +0000,RC,1820,11312,6072,-610,-477,673,
50,2016-05-02 23:21:49 +0000,LC,1416,14556,8332,2561,-2072,1472,2016-05-02 23:21:49 +0000,RC,2236,15860,7996,584,-185,108,
51,2016-05-02 23:21:49 +0000,LC,2304,13908,6996,564,-1443,288,2016-05-02 23:21:49 +0000,RC,1660,14248,6756,3195,556,219,
52,2016-05-02 23:21:49 +0000,LC,2020,14244,6532,-23,-877,83,2016-05-02 23:21:49 +0000,RC,1520,15104,5644,-623,299,408,
53,2016-05-02 23:21:49 +0000,LC,1912,14552,7440,-2525,-565,-1551,2016-05-02 23:21:49 +0000,RC,1564,15300,7488,-2051,658,1683,
54,2016-05-02 23:21:49 +0000,LC,2028,14224,8152,-288,-1186,-73,2016-05-02 23:21:49 +0000,RC,3016,14856,7508,-1203,394,1007,
55,2016-05-02 23:21:49 +0000,LC,1456,13324,7236,-473,-138,-932,2016-05-02 23:21:49 +0000,RC,2760,13696,7640,-1223,684,765,
56,2016-05-02 23:21:49 +0000,LC,1044,13552,8544,-1172,-691,4,2016-05-02 23:21:49 +0000,RC,2724,14528,9164,-368,904,-411,
57,2016-05-02 23:21:50 +0000,LC,1116,14956,8600,665,-1004,434,2016-05-02 23:21:50 +0000,RC,2872,16464,9404,-901,333,-650,
58,2016-05-02 23:21:50 +0000,LC,1660,16780,8964,329,-37,-244,2016-05-02 23:21:50 +0000,RC,2660,16720,9408,-113,26,-380,
59,2016-05-02 23:21:50 +0000,LC,1072,15852,8076,182,-500,81,2016-05-02 23:21:50 +0000,RC,2696,15664,9188,-1335,-365,513,
60,2016-05-02 23:21:50 +0000,LC,1064,14436,8308,-631,-394,690,2016-05-02 23:21:50 +0000,RC,3060,14416,8540,437,68,-9,
61,2016-05-02 23:21:50 +0000,LC,1196,14112,7472,1420,-405,916,2016-05-02 23:21:50 +0000,RC,2672,13604,8316,285,-569,222,
62,2016-05-02 23:21:50 +0000,LC,1312,14044,5968,1907,143,1096,2016-05-02 23:21:50 +0000,RC,2652,13656,7680,96,0,-794,
63,2016-05-02 23:21:50 +0000,LC,2004,13376,5188,1324,144,524,2016-05-02 23:21:51 +0000,RC,1768,13136,6644,1098,318,-1421,
64,2016-05-02 23:21:51 +0000,LC,1956,12812,4876,175,-458,815,2016-05-02 23:21:51 +0000,RC,1928,13072,6544,-462,93,-331,
65,2016-05-02 23:21:51 +0000,LC,1856,12412,5132,1061,-442,1063,2016-05-02 23:21:51 +0000,RC,2000,12040,5796,2452,-458,-943,
66,2016-05-02 23:21:51 +0000,LC,2340,11724,4096,-2503,-283,1006,2016-05-02 23:21:51 +0000,RC,1400,13740,5520,868,1744,-2353,
67,2016-05-02 23:21:51 +0000,LC,3288,15020,5696,-1092,577,1267,2016-05-02 23:21:51 +0000,RC,928,16452,5176,-3025,-479,193,
68,2016-05-02 23:21:51 +0000,LC,2720,13624,4664,232,-393,45,2016-05-02 23:21:51 +0000,RC,1112,14252,5940,-806,721,71,
69,2016-05-02 23:21:51 +0000,LC,2868,14644,6388,-654,-14,-271,2016-05-02 23:21:51 +0000,RC,1568,14580,7184,-1958,42,369,
70,2016-05-02 23:21:52 +0000,LC,2424,13100,5340,450,-784,-157,2016-05-02 23:21:52 +0000,RC,1180,14044,6540,-217,792,-756,
71,2016-05-02 23:21:52 +0000,LC,2152,13860,5492,663,-157,50,2016-05-02 23:21:52 +0000,RC,1168,14168,7236,-949,1166,58,
72,2016-05-02 23:21:52 +0000,LC,2568,12904,4324,-1048,-892,-576,2016-05-02 23:21:52 +0000,RC,1116,12448,5860,-1089,-265,241,
73,2016-05-02 23:21:52 +0000,LC,2480,12480,4668,-1492,-927,-669,2016-05-02 23:21:52 +0000,RC,720,12480,5892,564,181,-360,
74,2016-05-02 23:21:52 +0000,LC,1828,13228,6132,-461,-661,-434,2016-05-02 23:21:52 +0000,RC,1280,14152,6924,-1097,-564,326,
75,2016-05-02 23:21:52 +0000,LC,2404,14796,6172,1339,-1895,74,2016-05-02 23:21:52 +0000,RC,2080,14964,7380,1652,182,-420,
76,2016-05-02 23:21:52 +0000,LC,1644,14348,5092,-1422,-1050,-1099,2016-05-02 23:21:52 +0000,RC,1576,14276,5928,-1806,-581,496,
77,2016-05-02 23:21:53 +0000,LC,2096,13868,6368,951,-1237,-740,2016-05-02 23:21:53 +0000,RC,1668,14424,7584,-1079,-361,636,
78,2016-05-02 23:21:53 +0000,LC,1948,15812,5252,-704,-1096,-261,2016-05-02 23:21:53 +0000,RC,1844,15004,6852,1286,481,-215,
79,2016-05-02 23:21:53 +0000,LC,1952,15164,6212,-765,-1239,-456,2016-05-02 23:21:53 +0000,RC,1772,14852,7480,-2256,-506,687,
80,2016-05-02 23:21:53 +0000,LC,1948,14796,5836,-1619,-780,-196,2016-05-02 23:21:53 +0000,RC,2516,14508,7520,-757,233,749,
81,2016-05-02 23:21:53 +0000,LC,1328,14048,6904,-1656,-40,-473,2016-05-02 23:21:53 +0000,RC,2432,14136,8180,-222,29,21,
82,2016-05-02 23:21:53 +0000,LC,1620,14536,6336,1259,-1097,433,2016-05-02 23:21:53 +0000,RC,2588,14608,7700,429,180,-167,
83,2016-05-02 23:21:54 +0000,LC,1204,15400,7020,-1895,-385,-679,2016-05-02 23:21:54 +0000,RC,2256,14916,8784,-1916,894,-359,
84,2016-05-02 23:21:54 +0000,LC,1756,17304,8776,-426,-598,276,2016-05-02 23:21:54 +0000,RC,2956,16892,9852,-215,426,-179,
85,2016-05-02 23:21:54 +0000,LC,1912,15956,7800,-195,53,-601,2016-05-02 23:21:54 +0000,RC,3276,16036,9812,-3173,-293,-113,
86,2016-05-02 23:21:54 +0000,LC,768,14376,7396,-1441,-415,-300,2016-05-02 23:21:54 +0000,RC,2616,14056,9044,415,415,-854,
87,2016-05-02 23:21:54 +0000,LC,784,13768,7388,771,-362,-5,2016-05-02 23:21:54 +0000,RC,2508,13732,9092,-1428,-777,-495,
88,2016-05-02 23:21:54 +0000,LC,772,14260,6728,649,-537,450,2016-05-02 23:21:54 +0000,RC,2012,13628,9308,569,-248,-1031,
89,2016-05-02 23:21:54 +0000,LC,788,14200,6660,726,-358,949,2016-05-02 23:21:54 +0000,RC,2072,14096,8460,1740,-464,-908,
90,2016-05-02 23:21:55 +0000,LC,976,12900,5660,-76,-213,1160,2016-05-02 23:21:55 +0000,RC,1960,12716,6768,1513,-1000,-825,
91,2016-05-02 23:21:55 +0000,LC,1044,11928,5888,-23,324,1121,2016-05-02 23:21:55 +0000,RC,1992,11980,7188,-750,-843,-513,
92,2016-05-02 23:21:55 +0000,LC,1192,11956,5440,-454,-681,139,2016-05-02 23:21:55 +0000,RC,1708,11596,6316,786,-32,-344,
93,2016-05-02 23:21:55 +0000,LC,2192,12228,4844,-148,-697,593,2016-05-02 23:21:55 +0000,RC,1724,12356,5580,429,-402,-1611,
94,2016-05-02 23:21:55 +0000,LC,1480,15212,6816,879,-869,-172,2016-05-02 23:21:55 +0000,RC,1508,16220,7364,304,75,-698,
95,2016-05-02 23:21:55 +0000,LC,1304,14488,5032,450,-1039,-212,2016-05-02 23:21:55 +0000,RC,780,14368,6272,-180,544,-796,
96,2016-05-02 23:21:55 +0000,LC,1580,14464,5604,-1691,-351,267,2016-05-02 23:21:55 +0000,RC,916,14644,7080,-2097,-511,122,
97,2016-05-02 23:21:56 +0000,LC,1748,13016,5584,848,-965,-112,2016-05-02 23:21:56 +0000,RC,1580,13368,6860,-445,599,-587,
98,2016-05-02 23:21:56 +0000,LC,1072,12400,4040,-680,-704,-33,2016-05-02 23:21:56 +0000,RC,800,12264,5748,-1269,367,313,
99,2016-05-02 23:21:56 +0000,LC,2604,12972,6048,-162,-1519,-519,2016-05-02 23:21:56 +0000,RC,384,13184,7156,1819,591,589,
100,2016-05-02 23:21:56 +0000,LC,1388,13008,4620,1231,-894,190,2016-05-02 23:21:56 +0000,RC,596,13472,5540,2648,-409,575,
101,2016-05-02 23:21:56 +0000,LC,1076,15652,5888,-576,-666,585,2016-05-02 23:21:56 +0000,RC,1492,16296,6616,520,-145,171,
102,2016-05-02 23:21:56 +0000,LC,1752,15852,6192,-2616,-2809,-787,2016-05-02 23:21:56 +0000,RC,1552,15624,6124,1695,890,2042,
103,2016-05-02 23:21:57 +0000,LC,1440,13412,6300,-2391,-281,346,2016-05-02 23:21:57 +0000,RC,1968,14432,6024,-2597,-30,974,
104,2016-05-02 23:21:57 +0000,LC,2052,13416,6788,1223,-1696,920,2016-05-02 23:21:57 +0000,RC,2300,14356,6928,598,501,716,
105,2016-05-02 23:21:57 +0000,LC,1848,14104,7620,-1372,-409,292,2016-05-02 23:21:57 +0000,RC,3136,15088,6828,-319,29,834,
106,2016-05-02 23:21:57 +0000,LC,2092,13848,6624,-461,-955,79,2016-05-02 23:21:57 +0000,RC,2424,14880,6228,319,294,383,
107,2016-05-02 23:21:57 +0000,LC,2248,14832,7500,-1223,-497,29,2016-05-02 23:21:57 +0000,RC,3044,16092,6400,-402,275,-169,
108,2016-05-02 23:21:57 +0000,LC,2072,14744,7360,-152,-769,-471,2016-05-02 23:21:57 +0000,RC,2576,15972,6248,-378,582,-378,
109,2016-05-02 23:21:57 +0000,LC,1616,15792,8232,-1726,285,-665,2016-05-02 23:21:57 +0000,RC,2676,16484,7160,-2334,242,-60,
110,2016-05-02 23:21:58 +0000,LC,1596,16032,9292,488,-486,-299,2016-05-02 23:21:58 +0000,RC,2856,17344,8272,-541,399,-489,
111,2016-05-02 23:21:58 +0000,LC,1320,13972,7888,563,-92,2,2016-05-02 23:21:58 +0000,RC,2616,15440,7512,-743,-26,-484,
112,2016-05-02 23:21:58 +0000,LC,1116,13272,7332,619,-160,156,2016-05-02 23:21:58 +0000,RC,2200,14632,7400,-94,74,-752,
113,2016-05-02 23:21:58 +0000,LC,1692,13396,7028,427,-715,336,2016-05-02 23:21:58 +0000,RC,2324,14380,7220,-325,61,-327,
114,2016-05-02 23:21:58 +0000,LC,1272,13608,6728,123,-258,349,2016-05-02 23:21:58 +0000,RC,1920,14452,7008,1606,4,-563,
115,2016-05-02 23:21:58 +0000,LC,1388,13792,6840,404,-1179,514,2016-05-02 23:21:58 +0000,RC,1896,14488,5888,2230,-874,-351,
116,2016-05-02 23:21:59 +0000,LC,1476,13564,5924,1694,-1196,593,2016-05-02 23:21:59 +0000,RC,1572,14340,5732,-913,-380,-4,
117,2016-05-02 23:21:59 +0000,LC,2024,13264,6120,11,-1083,798,2016-05-02 23:21:59 +0000,RC,1844,14360,5704,856,-718,-372,
118,2016-05-02 23:21:59 +0000,LC,1732,12280,5128,928,-912,706,2016-05-02 23:21:59 +0000,RC,1780,13240,5128,2865,-7,-814,
119,2016-05-02 23:21:59 +0000,LC,1944,12592,5268,-419,-400,-7,2016-05-02 23:21:59 +0000,RC,1400,13152,4388,-1208,-20,660,
120,2016-05-02 23:21:59 +0000,LC,2460,14036,4740,571,-524,863,2016-05-02 23:21:59 +0000,RC,1552,15188,4760,2224,389,-1291,
121,2016-05-02 23:21:59 +0000,LC,2260,14284,5648,-1673,689,249,2016-05-02 23:21:59 +0000,RC,1524,15612,4204,-3674,-749,211,
122,2016-05-02 23:21:59 +0000,LC,2156,13820,6040,1733,-1316,506,2016-05-02 23:21:59 +0000,RC,1180,15012,5824,-262,398,-354,
123,2016-05-02 23:22:00 +0000,LC,2280,14564,5744,-257,-318,-157,2016-05-02 23:22:00 +0000,RC,1368,14908,5336,254,387,396,
124,2016-05-02 23:22:00 +0000,LC,2132,13728,5080,-156,-577,192,2016-05-02 23:22:00 +0000,RC,1224,14288,5348,-263,383,-455,
125,2016-05-02 23:22:00 +0000,LC,2120,13084,4400,-515,-107,-399,2016-05-02 23:22:00 +0000,RC,1556,13820,4972,-2272,-3,534,
126,2016-05-02 23:22:00 +0000,LC,2232,12676,4704,-1686,-75,-902,2016-05-02 23:22:00 +0000,RC,712,13180,5272,-639,353,55,
127,2016-05-02 23:22:00 +0000,LC,2812,13540,5608,-1204,-369,230,2016-05-02 23:22:00 +0000,RC,1532,14672,5484,-1029,116,-129,
128,2016-05-02 23:22:00 +0000,LC,860,13832,5752,-50,-282,-987,2016-05-02 23:22:00 +0000,RC,1004,13624,6476,-1731,-10,-132,
129,2016-05-02 23:22:00 +0000,LC,1620,14728,6976,-1859,-688,506,2016-05-02 23:22:00 +0000,RC,1016,16192,7220,292,211,823,
130,2016-05-02 23:22:01 +0000,LC,1192,14056,7228,-2413,74,-992,2016-05-02 23:22:01 +0000,RC,1692,14588,6844,-1494,209,783,
131,2016-05-02 23:22:01 +0000,LC,1184,12956,7464,856,-461,-49,2016-05-02 23:22:01 +0000,RC,1536,14084,7344,-93,-27,-86,
132,2016-05-02 23:22:01 +0000,LC,1236,13516,7196,877,-1154,449,2016-05-02 23:22:01 +0000,RC,2156,14708,7252,-640,626,577,
133,2016-05-02 23:22:01 +0000,LC,1172,14332,7552,-1115,-571,-68,2016-05-02 23:22:01 +0000,RC,1928,14992,6976,-210,139,57,
134,2016-05-02 23:22:01 +0000,LC,1052,13448,7796,-1094,-361,-194,2016-05-02 23:22:01 +0000,RC,1984,14452,7164,-952,-113,616,
135,2016-05-02 23:22:01 +0000,LC,1224,13420,7624,562,-1405,136,2016-05-02 23:22:01 +0000,RC,2228,14596,7636,42,-119,179,
136,2016-05-02 23:22:02 +0000,LC,1304,13844,7172,72,-716,-14,2016-05-02 23:22:02 +0000,RC,1776,14648,6976,-872,185,436,
137,2016-05-02 23:22:02 +0000,LC,1252,17224,9104,-859,-2356,331,2016-05-02 23:22:02 +0000,RC,2296,18464,10124,-830,321,-235,
138,2016-05-02 23:22:02 +0000,LC,1948,15840,8708,-1232,-232,-62,2016-05-02 23:22:02 +0000,RC,2544,16340,8388,-895,-741,81,
139,2016-05-02 23:22:02 +0000,LC,1588,14120,7988,-539,-789,-70,2016-05-02 23:22:02 +0000,RC,2196,14692,8064,-953,-277,-246,
140,2016-05-02 23:22:02 +0000,LC,1136,13768,7832,375,-979,220,2016-05-02 23:22:02 +0000,RC,1816,14148,8200,462,-185,-896,
141,2016-05-02 23:22:02 +0000,LC,1208,14260,7036,933,-495,271,2016-05-02 23:22:02 +0000,RC,1732,14360,8144,-59,-450,-946,
142,2016-05-02 23:22:02 +0000,LC,1132,14812,6816,1036,-706,99,2016-05-02 23:22:02 +0000,RC,1360,14964,7544,-644,-443,-1015,
143,2016-05-02 23:22:03 +0000,LC,1600,14124,6048,-349,556,-688,2016-05-02 23:22:03 +0000,RC,1276,13268,6768,-646,-379,-569,
144,2016-05-02 23:22:03 +0000,LC,1388,12196,5716,1168,-835,630,2016-05-02 23:22:03 +0000,RC,1884,12352,6444,1176,-189,-913,
145,2016-05-02 23:22:03 +0000,LC,1764,10656,4444,-425,50,624,2016-05-02 23:22:03 +0000,RC,996,10548,5724,-1418,-148,-367,
146,2016-05-02 23:22:03 +0000,LC,1512,12816,4676,146,-854,1428,2016-05-02 23:22:03 +0000,RC,1708,16068,7808,1659,719,-422,
147,2016-05-02 23:22:03 +0000,LC,2892,13712,6036,798,-878,992,2016-05-02 23:22:03 +0000,RC,1540,13192,5468,-411,-463,545,
148,2016-05-02 23:22:03 +0000,LC,2680,14328,4948,578,-1389,386,2016-05-02 23:22:03 +0000,RC,404,16464,7508,-610,-303,167,
149,2016-05-02 23:22:03 +0000,LC,888,15856,4516,-446,-72,-465,2016-05-02 23:22:04 +0000,RC,-488,14932,5916,1208,-307,-372,
150,2016-05-02 23:22:04 +0000,LC,120,14568,4816,2153,-1053,474,2016-05-02 23:22:04 +0000,RC,612,14556,7256,-1328,294,-2125,
151,2016-05-02 23:22:04 +0000,LC,2484,16068,5172,1638,-1367,1384,2016-05-02 23:22:04 +0000,RC,2336,14172,6372,2343,-30,-316,
152,2016-05-02 23:22:04 +0000,LC,4068,13596,4456,-1211,-1477,946,2016-05-02 23:22:04 +0000,RC,2588,13836,5664,238,-236,-94,
153,2016-05-02 23:22:04 +0000,LC,3800,13720,5600,-1056,-1662,404,2016-05-02 23:22:04 +0000,RC,1104,15360,4676,3410,271,-313,
154,2016-05-02 23:22:04 +0000,LC,2752,14276,5532,1756,-2004,374,2016-05-02 23:22:04 +0000,RC,764,14556,4952,782,-113,1035,
155,2016-05-02 23:22:04 +0000,LC,3140,14496,3728,1247,-1131,1452,2016-05-02 23:22:04 +0000,RC,1884,15376,5412,-210,123,1288,
