LTime, LSensorID, LAccelX, LAccelY, LAccelZ, LGyroX, LGyroY, LGyroZ,RTime, RSensorID, RAccelX, RAccelY, RAccelZ, RGyroX, RGyroY, RGyroZ, 
2016-04-30 22:16:57 +0000,LC,6528, 9828, 9784,-115, -611, -5,2016-04-30 22:16:57 +0000,RC,-3968, 9536, 12252,-486, 42, -280
2016-04-30 22:16:58 +0000,LC,6408, 10212, 9684,-534, -583, 439,2016-04-30 22:16:58 +0000,RC,-3908, 9612, 12020,-138, 216, 9
2016-04-30 22:16:58 +0000,LC,6508, 9692, 9664,8, -563, -88,2016-04-30 22:16:58 +0000,RC,-3848, 9388, 12312,-404, -12, -130
2016-04-30 22:16:58 +0000,LC,6612, 10016, 9800,-261, -494, 161,2016-04-30 22:16:58 +0000,RC,-3996, 9520, 12192,-377, -27, -108
2016-04-30 22:16:58 +0000,LC,6592, 9804, 9748,-244, -538, 63,2016-04-30 22:16:58 +0000,RC,-4260, 9480, 12196,-275, 58, -86
2016-04-30 22:16:58 +0000,LC,6728, 9976, 9652,-62, -601, -7,2016-04-30 22:16:58 +0000,RC,-4108, 9684, 12196,-89, 32, -19
2016-04-30 22:16:58 +0000,LC,6292, 9644, 9752,-61, -475, 167,2016-04-30 22:16:58 +0000,RC,-3956, 9340, 12192,-418, -29, -125
2016-04-30 22:16:59 +0000,LC,6500, 9808, 9812,-599, -411, 541,2016-04-30 22:16:59 +0000,RC,-4008, 9404, 12516,-600, 30, -73
2016-04-30 22:16:59 +0000,LC,6716, 9448, 10476,-3665, 948, 1779,2016-04-30 22:16:59 +0000,RC,-4240, 9176, 12284,-2929, -1162, -1445
2016-04-30 22:16:59 +0000,LC,7884, 8396, 12408,-25, 674, 498,2016-04-30 22:16:59 +0000,RC,-4476, 8040, 14500,12, -314, -293
2016-04-30 22:16:59 +0000,LC,7440, 8544, 11400,-1623, -354, 435,2016-04-30 22:16:59 +0000,RC,-3088, 8260, 13960,-1143, 180, -126
2016-04-30 22:16:59 +0000,LC,6828, 7612, 10416,-521, -913, -573,2016-04-30 22:16:59 +0000,RC,-2624, 7604, 13356,-1121, -372, -390
2016-04-30 22:16:59 +0000,LC,5280, 9816, 11872,921, -3817, -702,2016-04-30 22:16:59 +0000,RC,-3276, 8964, 13964,1028, -36, -283
2016-04-30 22:16:59 +0000,LC,2900, 5956, 9968,270, 426, -325,2016-04-30 22:16:59 +0000,RC,-5932, 4972, 9724,-318, -2880, -1774
2016-04-30 22:17:00 +0000,LC,5476, 10200, 10892,1107, -2589, -1838,2016-04-30 22:17:00 +0000,RC,-6132, 8148, 11768,2263, 2539, -1207
2016-04-30 22:17:00 +0000,LC,9976, 9984, 10976,-1378, 382, 914,2016-04-30 22:17:00 +0000,RC,-3136, 10300, 13764,-859, -3443, 391
2016-04-30 22:17:00 +0000,LC,5752, 7052, 8260,-146, 275, -979,2016-04-30 22:17:00 +0000,RC,-1040, 9948, 11300,-3974, 37, -1353
2016-04-30 22:17:00 +0000,LC,7492, 13980, 6552,4616, -3247, 3525,2016-04-30 22:17:00 +0000,RC,-3344, 8364, 12148,2252, -789, 2167
2016-04-30 22:17:00 +0000,LC,3296, 12424, 9940,-889, -867, 969,2016-04-30 22:17:00 +0000,RC,-7400, 9556, 13492,35, -813, -1303
2016-04-30 22:17:00 +0000,LC,6252, 10836, 10104,-2577, -588, 118,2016-04-30 22:17:00 +0000,RC,-5828, 9196, 12084,1557, 3479, 2161
2016-04-30 22:17:01 +0000,LC,6956, 10116, 8564,1985, 111, 1032,2016-04-30 22:17:00 +0000,RC,-2036, 9004, 10204,-1789, -271, 567
2016-04-30 22:17:01 +0000,LC,9528, 8640, 10300,-2572, -2457, 2763,2016-04-30 22:17:01 +0000,RC,-1620, 8080, 10680,-1404, -1584, 435
2016-04-30 22:17:01 +0000,LC,4604, 7528, 8188,-1251, -1137, 306,2016-04-30 22:17:01 +0000,RC,-3968, 6572, 10132,-962, -1230, 187
2016-04-30 22:17:01 +0000,LC,4832, 6244, 9036,-799, -1173, -860,2016-04-30 22:17:01 +0000,RC,-3576, 7548, 10640,-1478, -820, 513
2016-04-30 22:17:01 +0000,LC,7000, 8416, 11080,-830, -2280, -1637,2016-04-30 22:17:01 +0000,RC,-2976, 10960, 13212,-712, 1568, 197
2016-04-30 22:17:01 +0000,LC,7360, 8264, 9600,-1896, -1398, -1008,2016-04-30 22:17:01 +0000,RC,-2772, 7624, 10452,-1098, 1828, -909
2016-04-30 22:17:01 +0000,LC,8028, 9652, 11084,-1918, -2793, -895,2016-04-30 22:17:01 +0000,RC,-5088, 9644, 14108,140, 1211, 1414
2016-04-30 22:17:02 +0000,LC,7908, 8248, 10860,-366, -1169, -986,2016-04-30 22:17:02 +0000,RC,-3120, 9324, 12200,-2302, 1524, -408
2016-04-30 22:17:02 +0000,LC,7776, 7984, 10344,-1550, 1409, 1579,2016-04-30 22:17:02 +0000,RC,-4352, 9520, 13716,-444, -460, 1188
2016-04-30 22:17:02 +0000,LC,7636, 8672, 10964,-1182, 1064, 498,2016-04-30 22:17:02 +0000,RC,-5152, 8988, 12016,-2118, 325, 916
2016-04-30 22:17:02 +0000,LC,6924, 8600, 11944,-166, -2027, -1023,2016-04-30 22:17:02 +0000,RC,-3956, 8588, 13348,-1472, 1338, -4
2016-04-30 22:17:02 +0000,LC,6872, 8940, 11020,-1074, -2058, -679,2016-04-30 22:17:02 +0000,RC,-5556, 8000, 12276,-1155, 1096, 497
2016-04-30 22:17:02 +0000,LC,7396, 7836, 12184,492, -1148, -1065,2016-04-30 22:17:02 +0000,RC,-5040, 7496, 13556,-592, -531, 499
2016-04-30 22:17:03 +0000,LC,7628, 7632, 10180,177, -2365, -99,2016-04-30 22:17:02 +0000,RC,-5312, 9292, 13568,937, 2959, 1591
2016-04-30 22:17:03 +0000,LC,9824, 10016, 11392,-587, -2253, 341,2016-04-30 22:17:03 +0000,RC,-4324, 8584, 13484,-1225, 1496, 612
2016-04-30 22:17:03 +0000,LC,10552, 11736, 13180,-913, -714, 234,2016-04-30 22:17:03 +0000,RC,-6496, 11292, 18380,-1466, 1256, 30
2016-04-30 22:17:03 +0000,LC,9236, 8900, 11008,-1123, -1277, 1371,2016-04-30 22:17:03 +0000,RC,-6412, 9724, 14660,-285, -13, -1534
2016-04-30 22:17:03 +0000,LC,9204, 8340, 11336,-623, 266, 656,2016-04-30 22:17:03 +0000,RC,-5940, 7520, 13308,-33, -490, -198
2016-04-30 22:17:03 +0000,LC,8536, 8416, 11052,2119, -797, -978,2016-04-30 22:17:03 +0000,RC,-6520, 8740, 14588,1059, -1007, -144
2016-04-30 22:17:03 +0000,LC,8744, 8604, 9988,148, 90, 273,2016-04-30 22:17:03 +0000,RC,-5116, 8924, 13200,905, -765, -258
2016-04-30 22:17:04 +0000,LC,6972, 7584, 10176,1114, 714, 253,2016-04-30 22:17:04 +0000,RC,-4652, 7816, 12396,1508, -2194, 41
2016-04-30 22:17:04 +0000,LC,6756, 7864, 9264,777, 1923, 876,2016-04-30 22:17:04 +0000,RC,-4252, 8060, 11088,2958, -1089, -60
2016-04-30 22:17:04 +0000,LC,2904, 4636, 4628,2306, 1344, -2339,2016-04-30 22:17:04 +0000,RC,-5012, 9948, 11432,2868, -196, -2207
2016-04-30 22:17:04 +0000,LC,7928, 11068, 9236,1160, 353, 1208,2016-04-30 22:17:04 +0000,RC,-1884, 4664, 3908,-1472, -1330, -1618
2016-04-30 22:17:04 +0000,LC,6312, 8008, 6796,-95, -2023, 411,2016-04-30 22:17:04 +0000,RC,-3488, 13052, 13716,1919, -105, 1737
2016-04-30 22:17:04 +0000,LC,5492, 8240, 7896,-788, -2100, -1629,2016-04-30 22:17:04 +0000,RC,-3820, 10980, 9756,621, 1578, -514
2016-04-30 22:17:05 +0000,LC,3828, 8412, 8020,-2298, -609, 615,2016-04-30 22:17:04 +0000,RC,-4260, 7284, 9344,-3065, -470, -176
2016-04-30 22:17:05 +0000,LC,7764, 10164, 9876,-398, -244, 128,2016-04-30 22:17:05 +0000,RC,-6216, 10788, 11124,-982, 827, -32
2016-04-30 22:17:05 +0000,LC,5612, 9528, 8748,-1806, -650, 920,2016-04-30 22:17:05 +0000,RC,-4156, 7992, 10512,-443, -1217, 1489
2016-04-30 22:17:05 +0000,LC,9060, 7196, 9824,-543, 110, 1324,2016-04-30 22:17:05 +0000,RC,-4748, 10104, 12648,-1414, -124, 1079
2016-04-30 22:17:05 +0000,LC,8912, 9500, 11236,-398, -1603, -141,2016-04-30 22:17:05 +0000,RC,-5336, 8808, 12296,-1303, -9, -16
2016-04-30 22:17:05 +0000,LC,8632, 8252, 11092,-4359, -1537, 3217,2016-04-30 22:17:05 +0000,RC,-4748, 8780, 13144,-1438, -232, 865
2016-04-30 22:17:05 +0000,LC,10028, 8168, 11492,1118, -908, 315,2016-04-30 22:17:05 +0000,RC,-3036, 9104, 14004,-3620, -735, 286
2016-04-30 22:17:06 +0000,LC,7056, 7236, 10756,-237, -956, -463,2016-04-30 22:17:05 +0000,RC,-4228, 8628, 13584,2115, 1658, 2558
2016-04-30 22:17:06 +0000,LC,9188, 9720, 10444,-55, -673, -1223,2016-04-30 22:17:06 +0000,RC,-3916, 8372, 11308,-105, 251, 1642
2016-04-30 22:17:06 +0000,LC,11716, 12676, 12500,-1786, -966, -1556,2016-04-30 22:17:06 +0000,RC,-3488, 10044, 14088,-831, 1096, -321
2016-04-30 22:17:06 +0000,LC,10460, 10356, 13364,-3092, -1033, 2417,2016-04-30 22:17:06 +0000,RC,-5508, 11936, 16392,-485, 1929, -912
2016-04-30 22:17:06 +0000,LC,8048, 7660, 12340,-43, 734, 540,2016-04-30 22:17:06 +0000,RC,-6432, 9928, 16020,-1838, 1746, -2787
2016-04-30 22:17:06 +0000,LC,9352, 8152, 11312,1606, -870, -317,2016-04-30 22:17:06 +0000,RC,-6892, 10256, 14432,2677, 683, 985
2016-04-30 22:17:07 +0000,LC,8320, 7284, 11384,1308, -771, 584,2016-04-30 22:17:06 +0000,RC,-6220, 9820, 13216,968, -378, -117
2016-04-30 22:17:07 +0000,LC,8620, 7852, 11120,1295, -567, 307,2016-04-30 22:17:07 +0000,RC,-6060, 9140, 12032,2100, -1308, 597
2016-04-30 22:17:07 +0000,LC,7940, 8040, 9944,2088, 30, -948,2016-04-30 22:17:07 +0000,RC,-5180, 9872, 11440,3037, -646, 991
2016-04-30 22:17:07 +0000,LC,4912, 5780, 6020,5274, 3236, -1698,2016-04-30 22:17:07 +0000,RC,-5072, 10744, 10804,3793, -2524, -1046
2016-04-30 22:17:07 +0000,LC,4240, 5752, 4340,-1390, 1948, 2904,2016-04-30 22:17:07 +0000,RC,-1008, 5048, 5224,1760, -4183, -86
2016-04-30 22:17:07 +0000,LC,7308, 9304, 10932,1777, 5, -2434,2016-04-30 22:17:07 +0000,RC,-4192, 10596, 7824,-1680, 1086, -6477
2016-04-30 22:17:07 +0000,LC,6012, 11676, 7452,-537, -884, 372,2016-04-30 22:17:07 +0000,RC,-6056, 10088, 10076,-605, -2278, 1073
2016-04-30 22:17:08 +0000,LC,5964, 8140, 6944,-1512, -1522, 366,2016-04-30 22:17:07 +0000,RC,-3992, 11628, 10296,731, 800, 705
2016-04-30 22:17:08 +0000,LC,6388, 8264, 7684,-2639, -497, 1186,2016-04-30 22:17:08 +0000,RC,-3668, 9368, 8812,-3425, -145, 205
2016-04-30 22:17:08 +0000,LC,7888, 9840, 8760,-2359, -304, 1167,2016-04-30 22:17:08 +0000,RC,-3960, 9708, 9600,-1026, 1486, 582
2016-04-30 22:17:08 +0000,LC,8128, 8472, 9204,-1865, -1021, 713,2016-04-30 22:17:08 +0000,RC,-4776, 9872, 10144,-2819, 1320, -616
2016-04-30 22:17:08 +0000,LC,7380, 9568, 10168,-335, 387, 111,2016-04-30 22:17:08 +0000,RC,-4568, 9004, 11504,-1178, 802, 283
2016-04-30 22:17:08 +0000,LC,8044, 9152, 9620,-9, 1210, 393,2016-04-30 22:17:08 +0000,RC,-4908, 9664, 12556,-2014, 447, -427
2016-04-30 22:17:08 +0000,LC,5552, 8368, 12348,-636, -1330, -554,2016-04-30 22:17:08 +0000,RC,-5044, 10072, 11300,-652, 956, -125
2016-04-30 22:17:09 +0000,LC,7984, 9016, 8288,2342, -406, 218,2016-04-30 22:17:08 +0000,RC,-5188, 9244, 12680,95, -233, 1401
2016-04-30 22:17:09 +0000,LC,10152, 10716, 6708,-1017, -8465, -3250,2016-04-30 22:17:09 +0000,RC,-3936, 11024, 10992,351, 1459, 3038
2016-04-30 22:17:09 +0000,LC,10848, 13812, 10928,1681, -2379, -1390,2016-04-30 22:17:09 +0000,RC,-3812, 11828, 11548,-1046, 933, 1808
2016-04-30 22:17:09 +0000,LC,10744, 13908, 12436,-2341, -589, 1021,2016-04-30 22:17:09 +0000,RC,-5428, 12884, 16504,-1407, 1235, 221
2016-04-30 22:17:09 +0000,LC,8372, 10160, 12004,316, -310, -588,2016-04-30 22:17:09 +0000,RC,-6140, 11424, 14652,-443, 1502, -3258
2016-04-30 22:17:09 +0000,LC,8680, 10172, 9036,-54, 258, 193,2016-04-30 22:17:09 +0000,RC,-6332, 10252, 13720,-483, 1406, -1313
2016-04-30 22:17:10 +0000,LC,8880, 10384, 9988,1665, 118, -1074,2016-04-30 22:17:09 +0000,RC,-6408, 9744, 12876,1653, -456, 43
2016-04-30 22:17:10 +0000,LC,7208, 11528, 9160,2172, -738, -1049,2016-04-30 22:17:10 +0000,RC,-6572, 10252, 12160,1517, -1452, -1483
2016-04-30 22:17:10 +0000,LC,6836, 10524, 8408,1604, -479, 784,2016-04-30 22:17:10 +0000,RC,-6480, 10940, 10948,2695, -2433, -153
2016-04-30 22:17:10 +0000,LC,2000, 1024, 500,-501, 2631, 1120,2016-04-30 22:17:10 +0000,RC,-3020, 7976, 7528,4063, -1968, 1215
2016-04-30 22:17:10 +0000,LC,8936, 12740, 8808,-848, -3841, 4230,2016-04-30 22:17:10 +0000,RC,-2044, 7300, 2276,-2573, -957, -3465
2016-04-30 22:17:10 +0000,LC,8712, 6996, 4700,1701, -844, 610,2016-04-30 22:17:10 +0000,RC,-4324, 12352, 12336,872, -1544, 3815
2016-04-30 22:17:10 +0000,LC,7100, 11556, 7756,541, -1285, -1296,2016-04-30 22:17:10 +0000,RC,-3328, 12148, 10908,-84, -22, 417
2016-04-30 22:17:11 +0000,LC,5192, 8672, 5944,-2332, -1376, 793,2016-04-30 22:17:11 +0000,RC,-3724, 8748, 7288,-1513, 240, 127
2016-04-30 22:17:11 +0000,LC,6124, 9848, 8040,-2850, -832, 321,2016-04-30 22:17:11 +0000,RC,-3940, 9028, 8920,-3103, 950, -93
2016-04-30 22:17:11 +0000,LC,8536, 10396, 7268,-743, 2495, 2601,2016-04-30 22:17:11 +0000,RC,-3544, 8980, 9212,-3518, 215, 398
2016-04-30 22:17:11 +0000,LC,10528, 11428, 9452,-341, -1361, 291,2016-04-30 22:17:11 +0000,RC,-4536, 9864, 11788,-546, 632, 865
2016-04-30 22:17:11 +0000,LC,6608, 10420, 9716,-711, 408, 788,2016-04-30 22:17:11 +0000,RC,-4976, 11100, 12888,-2030, 202, 121
2016-04-30 22:17:11 +0000,LC,5260, 9964, 11180,1552, -928, -1604,2016-04-30 22:17:11 +0000,RC,-5196, 11000, 11192,386, 1036, -237
2016-04-30 22:17:11 +0000,LC,11964, 12476, 9200,-1315, -1680, 729,2016-04-30 22:17:11 +0000,RC,-5072, 11148, 11088,2897, 1021, 1283
2016-04-30 22:17:12 +0000,LC,10848, 10664, 9208,-2174, -1168, 1525,2016-04-30 22:17:12 +0000,RC,-4540, 10484, 11512,-4289, 1093, -2363
2016-04-30 22:17:12 +0000,LC,8440, 9376, 9932,-3080, -1485, 712,2016-04-30 22:17:12 +0000,RC,-4400, 10564, 11764,217, 607, 1063
2016-04-30 22:17:12 +0000,LC,11280, 10536, 15724,-3551, 1499, 2925,2016-04-30 22:17:12 +0000,RC,-7684, 14564, 16068,1431, -175, 537
2016-04-30 22:17:12 +0000,LC,9852, 8420, 12088,3211, -2235, -614,2016-04-30 22:17:12 +0000,RC,-6040, 12112, 14664,-825, 859, -1796
2016-04-30 22:17:12 +0000,LC,6340, 8468, 12972,3760, -32, -849,2016-04-30 22:17:12 +0000,RC,-6236, 12180, 12752,4027, -233, 2494
2016-04-30 22:17:12 +0000,LC,7916, 10936, 9964,2055, 4, -1223,2016-04-30 22:17:12 +0000,RC,-5420, 11624, 11752,977, -1576, -1533
2016-04-30 22:17:13 +0000,LC,7616, 8572, 8500,1478, -266, -391,2016-04-30 22:17:12 +0000,RC,-5468, 11972, 9724,1994, -2982, -557
2016-04-30 22:17:13 +0000,LC,3420, 6220, 5440,3666, 219, -2819,2016-04-30 22:17:13 +0000,RC,-4456, 11816, 8468,4758, -1335, 1186
2016-04-30 22:17:13 +0000,LC,4288, 8528, 2568,-475, 2419, 5119,2016-04-30 22:17:13 +0000,RC,-836, 5528, -312,-3913, -3472, 164
2016-04-30 22:17:13 +0000,LC,5124, 7672, 7472,21, 2753, -2636,2016-04-30 22:17:13 +0000,RC,384, 17428, 11128,2047, -861, 2477
2016-04-30 22:17:13 +0000,LC,5912, 15044, 8444,270, -2311, 1627,2016-04-30 22:17:13 +0000,RC,-3236, 12560, 9992,-346, 2064, -1398
2016-04-30 22:17:13 +0000,LC,7520, 10180, 6600,-1119, -1292, 190,2016-04-30 22:17:13 +0000,RC,-3856, 12116, 8444,-2270, -236, 929
2016-04-30 22:17:13 +0000,LC,5732, 10072, 6368,-2603, -1645, -31,2016-04-30 22:17:13 +0000,RC,-2376, 9584, 7420,-2105, 1017, 651
2016-04-30 22:17:14 +0000,LC,5980, 9308, 7732,-675, 653, 581,2016-04-30 22:17:14 +0000,RC,-2820, 8476, 9288,-1533, 418, 752
2016-04-30 22:17:14 +0000,LC,7400, 11632, 9220,3, -838, -1221,2016-04-30 22:17:14 +0000,RC,-3712, 12136, 11020,-2719, 645, -577
2016-04-30 22:17:14 +0000,LC,6924, 10664, 7312,-2991, -294, 1116,2016-04-30 22:17:14 +0000,RC,-4256, 11824, 10532,-2082, 580, -592
2016-04-30 22:17:14 +0000,LC,7212, 9932, 11596,-2818, 2934, 1556,2016-04-30 22:17:14 +0000,RC,-3932, 11776, 12692,-2419, 1536, 322
2016-04-30 22:17:14 +0000,LC,7716, 10104, 9152,-1058, -1943, -15,2016-04-30 22:17:14 +0000,RC,-5488, 9576, 11412,-1194, 899, -1919
2016-04-30 22:17:14 +0000,LC,6316, 8756, 9948,-1553, -502, -335,2016-04-30 22:17:14 +0000,RC,-5316, 9268, 11400,-675, 667, 1483
2016-04-30 22:17:14 +0000,LC,9116, 8948, 9164,-1610, -249, 346,2016-04-30 22:17:14 +0000,RC,-4076, 10652, 10992,-1045, 533, -587
2016-04-30 22:17:15 +0000,LC,6956, 10628, 13432,-1049, -2461, -1657,2016-04-30 22:17:15 +0000,RC,-5660, 10860, 12740,-4593, 565, -4729
2016-04-30 22:17:15 +0000,LC,9260, 12248, 15256,-2612, -1125, 213,2016-04-30 22:17:15 +0000,RC,-8016, 12072, 16232,65, 800, -105
2016-04-30 22:17:15 +0000,LC,11992, 9712, 13604,-1982, -788, 637,2016-04-30 22:17:15 +0000,RC,-7872, 11144, 15624,1417, -170, 342
2016-04-30 22:17:15 +0000,LC,8080, 8204, 11584,2634, -1157, -871,2016-04-30 22:17:15 +0000,RC,-6708, 9752, 12720,3013, -822, 1182
2016-04-30 22:17:15 +0000,LC,8388, 9748, 10760,3173, -1021, -1084,2016-04-30 22:17:15 +0000,RC,-5956, 10968, 12700,2424, -1813, 252
2016-04-30 22:17:15 +0000,LC,8972, 10144, 12036,824, -578, 1939,2016-04-30 22:17:15 +0000,RC,-6748, 10456, 11628,1543, -2965, -1773
2016-04-30 22:17:16 +0000,LC,6744, 11304, 8092,3269, 2025, 495,2016-04-30 22:17:16 +0000,RC,-3888, 10008, 8660,2937, -3222, -121
2016-04-30 22:17:16 +0000,LC,332, 112, -144,2609, 2394, -1374,2016-04-30 22:17:16 +0000,RC,-680, 2936, 212,-2294, -3413, 241
2016-04-30 22:17:16 +0000,LC,8272, 20644, 11860,3646, -5161, -929,2016-04-30 22:17:16 +0000,RC,-2820, 21728, 14592,3910, 2189, 1142
