LTime, LSensorID, LAccelX, LAccelY, LAccelZ, LGyroX, LGyroY, LGyroZ,RTime, RSensorID, RAccelX, RAccelY, RAccelZ, RGyroX, RGyroY, RGyroZ2016-04-30 22:20:10 +0000,LC,5052,11508,8976,316,-627,-29,2016-04-30 22:20:10 +0000,RC,-2132,11692,10980,-14,31,-742016-04-30 22:20:10 +0000,LC,4944,11436,9028,94,-379,-371,2016-04-30 22:20:10 +0000,RC,-2268,11504,10972,-364,-6,-5752016-04-30 22:20:11 +0000,LC,4920,11876,8832,106,-598,-293,2016-04-30 22:20:11 +0000,RC,-2652,11232,11252,-21,15,-1642016-04-30 22:20:11 +0000,LC,4780,11652,8672,-394,-643,322,2016-04-30 22:20:11 +0000,RC,-2220,11308,10768,-332,-54,182016-04-30 22:20:11 +0000,LC,4676,12148,8744,-517,-548,-684,2016-04-30 22:20:11 +0000,RC,-2508,11124,11112,13,-302,-1022016-04-30 22:20:11 +0000,LC,5132,11268,9364,42,610,797,2016-04-30 22:20:11 +0000,RC,-2040,11340,10880,-999,-222,822016-04-30 22:20:11 +0000,LC,4384,12024,9204,-1383,659,334,2016-04-30 22:20:11 +0000,RC,-2628,11788,11332,-80,-573,52016-04-30 22:20:11 +0000,LC,4964,11440,10996,-7065,3110,2206,2016-04-30 22:20:11 +0000,RC,-1636,9412,14104,-6950,-1824,-33962016-04-30 22:20:11 +0000,LC,5996,9252,13168,1170,-2159,227,2016-04-30 22:20:11 +0000,RC,-3124,9044,14680,852,-360,-1512016-04-30 22:20:12 +0000,LC,4988,7636,11184,207,-1442,230,2016-04-30 22:20:12 +0000,RC,-2104,8448,13068,487,-498,-3612016-04-30 22:20:12 +0000,LC,2460,13448,10124,2088,-1304,-431,2016-04-30 22:20:12 +0000,RC,-2736,10308,9064,637,-474,-1032016-04-30 22:20:12 +0000,LC,2816,6344,6484,476,1054,717,2016-04-30 22:20:12 +0000,RC,-3488,4236,8312,-234,-1270,-21422016-04-30 22:20:12 +0000,LC,6148,16244,13136,-1368,1459,-994,2016-04-30 22:20:12 +0000,RC,472,15060,13408,814,1733,14832016-04-30 22:20:12 +0000,LC,6016,9972,8952,-781,2551,752,2016-04-30 22:20:12 +0000,RC,1152,11220,10692,-2312,16,-11972016-04-30 22:20:12 +0000,LC,4748,9424,8580,1134,-3123,1370,2016-04-30 22:20:12 +0000,RC,-1524,9356,11332,428,-1376,16912016-04-30 22:20:13 +0000,LC,2176,12492,9784,2618,-2701,-1312,2016-04-30 22:20:13 +0000,RC,-4892,11516,10268,1443,637,1262016-04-30 22:20:13 +0000,LC,3360,10652,9504,-1835,-204,472,2016-04-30 22:20:13 +0000,RC,-3636,10444,11204,804,1927,-11812016-04-30 22:20:13 +0000,LC,4616,11120,10048,-352,145,-1557,2016-04-30 22:20:13 +0000,RC,-1928,10492,11596,-1834,599,-9822016-04-30 22:20:13 +0000,LC,4000,9408,9376,-291,-243,-1491,2016-04-30 22:20:13 +0000,RC,-1584,10536,11928,-1037,-13,-10332016-04-30 22:20:13 +0000,LC,4376,9100,6936,1953,-2610,-353,2016-04-30 22:20:13 +0000,RC,-1640,9632,9128,-1491,219,-232016-04-30 22:20:13 +0000,LC,3056,8548,7632,-2215,-1386,192,2016-04-30 22:20:13 +0000,RC,-1992,10196,10544,-1804,1327,3852016-04-30 22:20:13 +0000,LC,2820,8044,9680,-3048,-1721,-147,2016-04-30 22:20:13 +0000,RC,-2444,10676,11608,-592,45,-2462016-04-30 22:20:14 +0000,LC,5132,10188,11064,-1631,-3453,-117,2016-04-30 22:20:14 +0000,RC,-3120,9624,14000,-1121,-110,-5252016-04-30 22:20:14 +0000,LC,5880,9588,11128,-2303,-2233,51,2016-04-30 22:20:14 +0000,RC,-1644,9416,12764,-658,152,-5952016-04-30 22:20:14 +0000,LC,5556,9520,9104,806,-2100,-1489,2016-04-30 22:20:14 +0000,RC,-2492,10344,12000,-1569,622,-6122016-04-30 22:20:14 +0000,LC,7804,10112,13244,-1491,2689,1350,2016-04-30 22:20:14 +0000,RC,-2900,9508,14796,-2168,1313,9122016-04-30 22:20:14 +0000,LC,4016,8348,10972,-780,3272,92,2016-04-30 22:20:14 +0000,RC,-1968,8236,12904,-131,-392,3372016-04-30 22:20:14 +0000,LC,2804,10036,12256,1120,5438,606,2016-04-30 22:20:14 +0000,RC,-2056,9348,13880,-220,1903,16412016-04-30 22:20:14 +0000,LC,2640,9764,12544,174,-1840,247,2016-04-30 22:20:15 +0000,RC,-2320,8384,12748,-3087,1561,3502016-04-30 22:20:15 +0000,LC,1724,9928,11332,-1569,-37,871,2016-04-30 22:20:15 +0000,RC,-3732,7344,14208,-2584,226,6362016-04-30 22:20:15 +0000,LC,3120,12356,15720,-2548,-1406,-200,2016-04-30 22:20:15 +0000,RC,-4400,7508,20064,-110,-219,7222016-04-30 22:20:15 +0000,LC,2284,11100,15388,-235,-1398,154,2016-04-30 22:20:15 +0000,RC,-3548,8564,16920,77,216,612016-04-30 22:20:15 +0000,LC,2308,9340,13492,237,-393,767,2016-04-30 22:20:15 +0000,RC,-2720,7896,15776,42,-587,-5062016-04-30 22:20:15 +0000,LC,2076,9708,11980,2343,-1332,367,2016-04-30 22:20:15 +0000,RC,-2704,7856,13864,3103,-1434,-1162016-04-30 22:20:15 +0000,LC,2220,9344,11324,1145,-2812,180,2016-04-30 22:20:15 +0000,RC,-1800,8616,12992,1948,-1540,-9012016-04-30 22:20:16 +0000,LC,3072,8724,10116,1414,-1704,-21,2016-04-30 22:20:16 +0000,RC,-2132,7956,12008,2922,-628,-21922016-04-30 22:20:16 +0000,LC,2960,9004,8140,5378,-1525,-592,2016-04-30 22:20:16 +0000,RC,-940,7184,6376,6384,-681,8852016-04-30 22:20:16 +0000,LC,3056,8200,5912,-1185,-1687,2789,2016-04-30 22:20:16 +0000,RC,-1888,9440,12000,-3218,-1351,-38562016-04-30 22:20:16 +0000,LC,4516,10168,8656,329,-821,-592,2016-04-30 22:20:16 +0000,RC,-1812,8696,9876,-379,-111,5452016-04-30 22:20:16 +0000,LC,3960,12940,7560,35,-1644,-216,2016-04-30 22:20:16 +0000,RC,-1868,11744,9840,693,294,10622016-04-30 22:20:16 +0000,LC,4208,8396,8096,-4630,-7329,1390,2016-04-30 22:20:16 +0000,RC,-2376,9116,10036,-3299,339,-4962016-04-30 22:20:16 +0000,LC,5332,8744,8580,-1319,-243,-318,2016-04-30 22:20:16 +0000,RC,-1944,9664,11272,-523,1625,1392016-04-30 22:20:17 +0000,LC,5500,9112,9408,-106,-1457,-364,2016-04-30 22:20:17 +0000,RC,-2056,9076,11516,-75,653,-2362016-04-30 22:20:17 +0000,LC,5588,10348,9188,-232,-453,-695,2016-04-30 22:20:17 +0000,RC,-2172,9256,12000,-2515,-414,-4172016-04-30 22:20:17 +0000,LC,5000,11232,10200,-1653,840,-896,2016-04-30 22:20:17 +0000,RC,-2724,10028,12388,-128,1141,802016-04-30 22:20:17 +0000,LC,5612,9712,9752,-1336,-1924,-596,2016-04-30 22:20:17 +0000,RC,-2232,9056,13400,-2567,913,13112016-04-30 22:20:17 +0000,LC,5656,13844,12416,4368,-697,-2469,2016-04-30 22:20:17 +0000,RC,-2836,9680,13080,-920,347,2562016-04-30 22:20:17 +0000,LC,5300,9380,10496,-2915,27,1123,2016-04-30 22:20:17 +0000,RC,-3020,8536,12956,-2057,245,472016-04-30 22:20:17 +0000,LC,6672,10308,12272,-2492,-639,448,2016-04-30 22:20:18 +0000,RC,-3048,9656,14044,216,1079,8462016-04-30 22:20:18 +0000,LC,6908,11016,12972,-352,108,-249,2016-04-30 22:20:18 +0000,RC,-4192,9496,16244,-2579,868,-9252016-04-30 22:20:18 +0000,LC,8212,10340,13132,-1579,-911,-764,2016-04-30 22:20:18 +0000,RC,-4100,9872,17844,-512,1109,-14372016-04-30 22:20:18 +0000,LC,5016,8396,13672,-738,128,191,2016-04-30 22:20:18 +0000,RC,-4184,8856,16128,2003,-772,-9882016-04-30 22:20:18 +0000,LC,5504,8972,12332,1720,-486,-142,2016-04-30 22:20:18 +0000,RC,-4308,9040,15256,193,-1054,-14152016-04-30 22:20:18 +0000,LC,5564,10036,11532,2161,-1776,877,2016-04-30 22:20:18 +0000,RC,-4408,9608,14412,2953,-1802,1472016-04-30 22:20:18 +0000,LC,3732,10612,12088,3266,1017,177,2016-04-30 22:20:18 +0000,RC,-2300,6984,11956,-1492,-4307,-4752016-04-30 22:20:19 +0000,LC,4860,10980,10680,2054,-619,1510,2016-04-30 22:20:19 +0000,RC,-692,6828,8212,4540,-1207,13762016-04-30 22:20:19 +0000,LC,2404,2204,964,2889,67,-436,2016-04-30 22:20:19 +0000,RC,-2292,5620,4988,684,-1391,-24042016-04-30 22:20:19 +0000,LC,4056,15936,9308,1646,-2312,243,2016-04-30 22:20:19 +0000,RC,-1116,13756,10908,-800,-106,22482016-04-30 22:20:19 +0000,LC,6608,10112,8592,-2056,-190,1151,2016-04-30 22:20:19 +0000,RC,-1072,9428,10964,1348,1303,-12542016-04-30 22:20:19 +0000,LC,3800,11160,6636,898,-1604,-2644,2016-04-30 22:20:19 +0000,RC,-1824,6972,8472,-2616,1163,-7832016-04-30 22:20:19 +0000,LC,4936,10508,7292,-1109,-622,296,2016-04-30 22:20:19 +0000,RC,-2880,10136,12204,-2633,355,-8122016-04-30 22:20:19 +0000,LC,4416,11320,8244,-4177,1765,-181,2016-04-30 22:20:20 +0000,RC,-2360,9416,11888,296,1665,-4282016-04-30 22:20:20 +0000,LC,3868,10672,8744,-284,-41,-771,2016-04-30 22:20:20 +0000,RC,-2560,9356,12756,-1573,1743,-8602016-04-30 22:20:20 +0000,LC,4496,11168,8900,-1382,-914,-404,2016-04-30 22:20:20 +0000,RC,-3548,12476,12440,-980,1797,7952016-04-30 22:20:20 +0000,LC,5256,11184,9332,-1008,-1448,-566,2016-04-30 22:20:20 +0000,RC,-3284,10172,12840,752,1622,7982016-04-30 22:20:20 +0000,LC,2580,11348,10252,949,1745,651,2016-04-30 22:20:20 +0000,RC,-3428,11596,12380,-570,-821,20092016-04-30 22:20:20 +0000,LC,5028,9940,11088,-2128,-3863,116,2016-04-30 22:20:20 +0000,RC,-3220,10084,13152,-2377,12,-1172016-04-30 22:20:20 +0000,LC,4532,11160,10552,-1590,-1437,161,2016-04-30 22:20:20 +0000,RC,-3728,8592,12296,-753,765,9602016-04-30 22:20:20 +0000,LC,4392,10580,12008,-874,-1912,98,2016-04-30 22:20:21 +0000,RC,-4600,12780,16564,1079,2250,11212016-04-30 22:20:21 +0000,LC,6480,13688,16380,750,-1175,-768,2016-04-30 22:20:21 +0000,RC,-3976,12556,15728,-747,-363,-12902016-04-30 22:20:21 +0000,LC,6624,11988,12372,95,273,189,2016-04-30 22:20:21 +0000,RC,-3840,10960,13296,3041,-490,-772016-04-30 22:20:21 +0000,LC,5436,11820,11256,1752,-144,-291,2016-04-30 22:20:21 +0000,RC,-4344,10992,13176,-803,-1643,-18632016-04-30 22:20:21 +0000,LC,4072,12528,10884,2521,-893,-617,2016-04-30 22:20:21 +0000,RC,-3244,11552,11888,2046,-2228,-11572016-04-30 22:20:21 +0000,LC,4996,11360,9400,1353,86,550,2016-04-30 22:20:21 +0000,RC,-3008,12324,12188,3282,1874,-8182016-04-30 22:20:21 +0000,LC,3864,10528,6612,1708,-2392,-818,2016-04-30 22:20:21 +0000,RC,-164,-632,2944,-539,-2867,19892016-04-30 22:20:22 +0000,LC,1116,5024,124,-4078,2209,3707,2016-04-30 22:20:22 +0000,RC,-2820,21872,12924,437,690,-37072016-04-30 22:20:22 +0000,LC,3044,16900,11420,3046,-153,-3821,2016-04-30 22:20:22 +0000,RC,-2288,7892,9304,-702,301,-8252016-04-30 22:20:22 +0000,LC,4616,11572,7700,-1245,-1954,2650,2016-04-30 22:20:22 +0000,RC,-2112,11300,9100,-108,670,19092016-04-30 22:20:22 +0000,LC,3808,9216,6084,103,-2192,-2561,2016-04-30 22:20:22 +0000,RC,-2312,9112,9876,-3496,906,342016-04-30 22:20:22 +0000,LC,5012,11164,8388,-2899,-1305,1372,2016-04-30 22:20:22 +0000,RC,-3204,7656,10992,-2398,22,-1592016-04-30 22:20:22 +0000,LC,4240,9856,8308,-3289,-500,782,2016-04-30 22:20:22 +0000,RC,-3424,9932,11988,-2325,152,1962016-04-30 22:20:22 +0000,LC,5136,10824,10348,-481,-1412,-247,2016-04-30 22:20:23 +0000,RC,-2100,11472,11560,324,1084,4382016-04-30 22:20:23 +0000,LC,5340,10340,8868,-970,86,-792,2016-04-30 22:20:23 +0000,RC,-2080,10584,12376,-750,1211,-1062016-04-30 22:20:23 +0000,LC,5484,10796,9676,-1203,1785,166,2016-04-30 22:20:23 +0000,RC,-3808,9980,13568,-621,1271,1542016-04-30 22:20:23 +0000,LC,5956,10924,10632,-563,-174,290,2016-04-30 22:20:23 +0000,RC,-3496,9948,12732,-15,869,5872016-04-30 22:20:23 +0000,LC,4924,8912,10476,-200,-4907,-988,2016-04-30 22:20:23 +0000,RC,-3552,10344,12664,-179,547,3602016-04-30 22:20:23 +0000,LC,4704,10360,9528,-461,942,1226,2016-04-30 22:20:23 +0000,RC,-3992,10456,14060,-3446,561,-3542016-04-30 22:20:23 +0000,LC,6252,11224,12020,-5098,-1097,1505,2016-04-30 22:20:23 +0000,RC,-5596,10048,17456,-2755,-1265,-21582016-04-30 22:20:23 +0000,LC,8660,12052,14560,-2811,868,1475,2016-04-30 22:20:24 +0000,RC,-4820,8584,17400,782,-652,-5682016-04-30 22:20:24 +0000,LC,7884,8204,14672,-328,1889,1083,2016-04-30 22:20:24 +0000,RC,-4476,9028,15844,1267,-428,-2652016-04-30 22:20:24 +0000,LC,7172,6744,13028,4690,-2375,-1408,2016-04-30 22:20:24 +0000,RC,-4272,8956,14532,2108,-764,-732016-04-30 22:20:24 +0000,LC,6680,10544,11936,488,-1070,700,2016-04-30 22:20:24 +0000,RC,-3044,10104,13356,3643,-3610,-262016-04-30 22:20:24 +0000,LC,7280,9024,10108,5399,-1707,-1608,2016-04-30 22:20:24 +0000,RC,-2648,10428,11700,5877,-345,-11782016-04-30 22:20:24 +0000,LC,4116,8448,7136,4023,1197,-741,2016-04-30 22:20:24 +0000,RC,-2276,872,2016,-135,-2555,3502016-04-30 22:20:24 +0000,LC,1516,6060,752,2085,400,1883,2016-04-30 22:20:24 +0000,RC,-4788,16516,13032,-1447,20,-52812016-04-30 22:20:25 +0000,LC,2984,15876,9524,-1868,1297,-2974,2016-04-30 22:20:25 +0000,RC,-3680,6908,9040,672,1085,3172016-04-30 22:20:25 +0000,LC,4912,12404,8460,-794,-1771,1324,2016-04-30 22:20:25 +0000,RC,-2732,12076,9532,-1955,838,-4592016-04-30 22:20:25 +0000,LC,4460,8584,7444,-722,-835,-1519,2016-04-30 22:20:25 +0000,RC,-3008,8368,10272,-1336,1500,-3792016-04-30 22:20:25 +0000,LC,3704,9492,7152,-2399,-558,576,2016-04-30 22:20:25 +0000,RC,-2740,9140,10256,-2663,65,822016-04-30 22:20:25 +0000,LC,3560,8524,8120,-3624,-323,-152,2016-04-30 22:20:25 +0000,RC,-3628,9108,11500,-2074,1390,12282016-04-30 22:20:25 +0000,LC,5344,9916,9308,81,-1276,310,2016-04-30 22:20:25 +0000,RC,-4460,9956,13368,-1096,1064,16332016-04-30 22:20:26 +0000,LC,4092,12196,11192,1,-1116,1148,2016-04-30 22:20:26 +0000,RC,-3564,9320,11980,229,534,19662016-04-30 22:20:26 +0000,LC,3676,10020,10472,786,-164,-314,2016-04-30 22:20:26 +0000,RC,-3592,8992,12888,-821,2525,222016-04-30 22:20:26 +0000,LC,5828,11108,9676,506,1558,825,2016-04-30 22:20:26 +0000,RC,-4684,11188,12832,1330,1658,9342016-04-30 22:20:26 +0000,LC,6068,11920,10936,-2926,-806,333,2016-04-30 22:20:26 +0000,RC,-5144,10972,13332,-285,1205,-22032016-04-30 22:20:26 +0000,LC,6544,11148,10352,346,-822,-531,2016-04-30 22:20:26 +0000,RC,-4528,12284,14292,-418,902,8462016-04-30 22:20:26 +0000,LC,6568,9956,14832,-4068,1453,806,2016-04-30 22:20:26 +0000,RC,-7620,12512,16416,-4018,-638,-23172016-04-30 22:20:26 +0000,LC,4720,10176,14872,-2007,1235,1358,2016-04-30 22:20:26 +0000,RC,-5260,9052,14384,1024,-772,1122016-04-30 22:20:27 +0000,LC,6340,9404,11200,2816,-2334,-795,2016-04-30 22:20:27 +0000,RC,-4580,11116,12244,4070,-1273,23942016-04-30 22:20:27 +0000,LC,6480,10132,11248,1116,-1988,-275,2016-04-30 22:20:27 +0000,RC,-3488,10240,12148,346,-2339,-8672016-04-30 22:20:27 +0000,LC,6432,10644,11792,-3204,1761,300,2016-04-30 22:20:27 +0000,RC,-3912,11224,12968,-2289,-2998,-15452016-04-30 22:20:27 +0000,LC,7424,10664,11240,1177,-494,-915,2016-04-30 22:20:27 +0000,RC,-3344,12272,11916,2977,-938,-20522016-04-30 22:20:27 +0000,LC,2064,2464,3012,-213,1477,-1391,2016-04-30 22:20:27 +0000,RC,-1112,1348,792,-1201,-2801,9522016-04-30 22:20:27 +0000,LC,4736,6180,4408,1225,4745,4384,2016-04-30 22:20:27 +0000,RC,-2860,15416,16372,-1514,405,-8050