,LTime, LSensorID, LAccelX, LAccelY, LAccelZ, LGyroX, LGyroY, LGyroZ,RTime, RSensorID, RAccelX, RAccelY, RAccelZ, RGyroX, RGyroY, RGyroZ, 
266,2016-05-02 23:52:18 +0000,LC,1960,11224,8968,1353,-2033,-243,2016-05-02 23:52:18 +0000,RC,-856,10816,11268,-206,-702,-174,
267,2016-05-02 23:52:19 +0000,LC,2276,11340,8500,-1160,-619,-57,2016-05-02 23:52:18 +0000,RC,-700,9128,11720,252,-405,32,
268,2016-05-02 23:52:19 +0000,LC,2796,11848,9016,-1011,-1523,-920,2016-05-02 23:52:19 +0000,RC,-108,11488,10676,1227,797,458,
269,2016-05-02 23:52:19 +0000,LC,2180,11968,9772,1173,-3549,-2061,2016-05-02 23:52:19 +0000,RC,160,11484,10596,-1292,-723,407,
270,2016-05-02 23:52:19 +0000,LC,1852,11520,10032,-4059,-1199,-918,2016-05-02 23:52:19 +0000,RC,-488,11904,12204,-2647,-1709,2101,
271,2016-05-02 23:52:19 +0000,LC,2872,10116,9440,-358,-809,233,2016-05-02 23:52:19 +0000,RC,1020,8772,12808,1746,282,-122,
272,2016-05-02 23:52:19 +0000,LC,2696,11152,10832,-128,-541,-886,2016-05-02 23:52:19 +0000,RC,920,11788,11312,-602,636,827,
273,2016-05-02 23:52:19 +0000,LC,1812,12060,11224,-3357,275,-514,2016-05-02 23:52:19 +0000,RC,852,12644,12372,-1477,-129,157,
274,2016-05-02 23:52:20 +0000,LC,2316,13276,14752,-1097,-295,-171,2016-05-02 23:52:20 +0000,RC,1316,13212,14992,35,2324,524,
275,2016-05-02 23:52:20 +0000,LC,2228,11636,13272,-3844,-1070,46,2016-05-02 23:52:20 +0000,RC,932,11544,13840,-2117,888,-482,
276,2016-05-02 23:52:20 +0000,LC,2496,11096,11352,33,-810,535,2016-05-02 23:52:20 +0000,RC,-756,10408,13916,-840,-45,-1134,
277,2016-05-02 23:52:20 +0000,LC,1564,9484,12544,1780,154,648,2016-05-02 23:52:20 +0000,RC,556,11232,12764,-1181,101,-629,
278,2016-05-02 23:52:20 +0000,LC,1944,9932,11016,-1764,3965,2306,2016-05-02 23:52:20 +0000,RC,180,7884,13508,-117,-2016,-1089,
279,2016-05-02 23:52:20 +0000,LC,1588,8524,9812,1296,365,673,2016-05-02 23:52:20 +0000,RC,1340,9636,11476,-153,1221,334,
280,2016-05-02 23:52:21 +0000,LC,1292,8380,10168,1181,-198,926,2016-05-02 23:52:21 +0000,RC,308,10084,10504,564,-146,-371,
281,2016-05-02 23:52:21 +0000,LC,568,9728,9120,-339,-419,805,2016-05-02 23:52:21 +0000,RC,-344,8460,10920,-298,-819,-1131,
282,2016-05-02 23:52:21 +0000,LC,2024,9704,9200,1620,-102,1307,2016-05-02 23:52:21 +0000,RC,432,9652,11252,835,-462,6,
283,2016-05-02 23:52:21 +0000,LC,832,9904,11196,-1561,-675,-219,2016-05-02 23:52:21 +0000,RC,-52,10272,13168,259,1258,-739,
284,2016-05-02 23:52:21 +0000,LC,1704,10112,10604,576,-934,25,2016-05-02 23:52:21 +0000,RC,816,11692,10860,1355,365,270,
285,2016-05-02 23:52:21 +0000,LC,1768,10088,11032,322,-763,-80,2016-05-02 23:52:21 +0000,RC,1396,12040,11684,-318,221,-234,
286,2016-05-02 23:52:21 +0000,LC,2080,9648,10920,454,-1066,80,2016-05-02 23:52:21 +0000,RC,540,10556,11540,102,264,22,
287,2016-05-02 23:52:22 +0000,LC,1852,10352,10712,-562,-879,-355,2016-05-02 23:52:22 +0000,RC,196,10668,12396,-105,79,-395,
288,2016-05-02 23:52:22 +0000,LC,1720,10012,9792,-1708,-1042,-356,2016-05-02 23:52:22 +0000,RC,440,10492,11144,-1334,-39,631,
289,2016-05-02 23:52:22 +0000,LC,1708,9316,9712,1456,-1385,-288,2016-05-02 23:52:22 +0000,RC,336,10240,10936,649,998,557,
290,2016-05-02 23:52:22 +0000,LC,2176,10808,8844,791,-911,-302,2016-05-02 23:52:22 +0000,RC,180,10244,10260,359,82,-87,
291,2016-05-02 23:52:22 +0000,LC,2040,9364,9796,-295,-1111,394,2016-05-02 23:52:22 +0000,RC,20,10680,10616,1131,492,310,
292,2016-05-02 23:52:22 +0000,LC,2416,10844,9136,-1479,-1608,-538,2016-05-02 23:52:22 +0000,RC,540,11012,10596,-448,204,680,
293,2016-05-02 23:52:23 +0000,LC,2112,10320,10260,-2703,-1040,-989,2016-05-02 23:52:22 +0000,RC,800,10280,12196,-856,451,1811,
294,2016-05-02 23:52:23 +0000,LC,1956,10252,11428,-1516,-405,-369,2016-05-02 23:52:23 +0000,RC,808,11232,11828,-1571,295,834,
295,2016-05-02 23:52:23 +0000,LC,2388,10124,12912,-2500,-368,-468,2016-05-02 23:52:23 +0000,RC,1600,11072,13376,-1335,490,1362,
296,2016-05-02 23:52:23 +0000,LC,1884,10008,12960,-588,49,-169,2016-05-02 23:52:23 +0000,RC,1000,10632,12796,-923,652,-390,
297,2016-05-02 23:52:23 +0000,LC,1928,12132,14700,-1090,-1300,-36,2016-05-02 23:52:23 +0000,RC,1324,12040,15328,-661,175,248,
298,2016-05-02 23:52:23 +0000,LC,1988,9480,15336,-1225,-1057,1334,2016-05-02 23:52:23 +0000,RC,1384,11796,15448,-488,1320,-380,
299,2016-05-02 23:52:23 +0000,LC,2160,8876,13056,-222,-993,878,2016-05-02 23:52:23 +0000,RC,1324,9020,14148,-1674,86,-312,
300,2016-05-02 23:52:24 +0000,LC,2232,7772,13404,59,41,793,2016-05-02 23:52:24 +0000,RC,-140,8532,14596,121,642,-931,
301,2016-05-02 23:52:24 +0000,LC,2396,9172,12296,1917,1924,1283,2016-05-02 23:52:24 +0000,RC,440,10296,14112,1008,-1187,-1208,
302,2016-05-02 23:52:24 +0000,LC,2056,9208,11300,640,336,1337,2016-05-02 23:52:24 +0000,RC,1040,9908,12492,-1128,-1616,-1683,
303,2016-05-02 23:52:24 +0000,LC,1632,8660,9236,1400,273,1432,2016-05-02 23:52:24 +0000,RC,-448,7384,10960,912,-850,-1645,
304,2016-05-02 23:52:24 +0000,LC,1096,7860,8504,1887,-1016,-180,2016-05-02 23:52:24 +0000,RC,84,7672,9548,1381,-198,17,
305,2016-05-02 23:52:24 +0000,LC,1472,9060,7868,-618,-468,441,2016-05-02 23:52:24 +0000,RC,1212,9764,9920,819,76,-140,
306,2016-05-02 23:52:24 +0000,LC,1728,10248,12008,1660,-896,516,2016-05-02 23:52:24 +0000,RC,-440,10904,13036,1349,-113,-2859,
307,2016-05-02 23:52:25 +0000,LC,1932,9748,9984,-1389,-587,-294,2016-05-02 23:52:25 +0000,RC,136,9464,10588,-2498,-893,425,
308,2016-05-02 23:52:25 +0000,LC,2784,10124,11544,1389,-923,-292,2016-05-02 23:52:25 +0000,RC,480,10688,13060,634,620,-806,
309,2016-05-02 23:52:25 +0000,LC,2096,9964,9720,-631,-664,-251,2016-05-02 23:52:25 +0000,RC,-180,9264,11876,-212,303,-215,
310,2016-05-02 23:52:25 +0000,LC,1356,11304,11176,553,-316,-83,2016-05-02 23:52:25 +0000,RC,-352,10884,11908,-173,332,-104,
311,2016-05-02 23:52:25 +0000,LC,1836,10900,9780,-1275,-251,-3,2016-05-02 23:52:25 +0000,RC,-172,11740,11412,-872,-175,-58,
312,2016-05-02 23:52:25 +0000,LC,1524,10604,10192,-713,-714,261,2016-05-02 23:52:25 +0000,RC,-124,10936,11540,-1376,44,190,
313,2016-05-02 23:52:26 +0000,LC,1512,10204,9152,-431,-993,151,2016-05-02 23:52:26 +0000,RC,60,9912,10956,-1263,19,339,
314,2016-05-02 23:52:26 +0000,LC,1932,9588,8176,-408,-999,113,2016-05-02 23:52:26 +0000,RC,-468,8772,10184,-2,47,-443,
315,2016-05-02 23:52:26 +0000,LC,1108,9536,8884,-1467,-1221,-43,2016-05-02 23:52:26 +0000,RC,1016,11140,9052,2267,-543,276,
316,2016-05-02 23:52:26 +0000,LC,2280,9560,10516,2226,-1106,-118,2016-05-02 23:52:26 +0000,RC,-396,10308,11376,-519,-62,-479,
317,2016-05-02 23:52:26 +0000,LC,2196,10592,10264,-1013,-1610,-83,2016-05-02 23:52:26 +0000,RC,-376,11396,11296,-1753,-938,1024,
318,2016-05-02 23:52:26 +0000,LC,984,11932,10568,-1160,-1368,-538,2016-05-02 23:52:26 +0000,RC,-12,11516,11988,-708,417,1391,
319,2016-05-02 23:52:26 +0000,LC,1836,10152,11488,-1792,-1046,281,2016-05-02 23:52:26 +0000,RC,620,10656,12748,-2029,187,795,
320,2016-05-02 23:52:27 +0000,LC,1800,10748,12668,-1079,-644,-410,2016-05-02 23:52:27 +0000,RC,1320,11640,13456,411,657,-128,
321,2016-05-02 23:52:27 +0000,LC,2408,11032,13456,-2737,-72,-95,2016-05-02 23:52:27 +0000,RC,548,14140,14320,45,1266,-918,
322,2016-05-02 23:52:27 +0000,LC,2592,11572,14868,-767,-284,-849,2016-05-02 23:52:27 +0000,RC,504,11152,15096,-2722,-46,-917,
323,2016-05-02 23:52:27 +0000,LC,2256,9416,14012,-193,-82,-340,2016-05-02 23:52:27 +0000,RC,872,12856,14040,-1162,-556,-1328,
324,2016-05-02 23:52:27 +0000,LC,2088,9596,12688,-251,-355,46,2016-05-02 23:52:27 +0000,RC,260,9472,13192,-23,-303,-929,
325,2016-05-02 23:52:27 +0000,LC,1740,9740,10896,593,1039,106,2016-05-02 23:52:27 +0000,RC,660,10556,12116,-1068,109,-189,
326,2016-05-02 23:52:27 +0000,LC,1336,8224,10748,2254,143,322,2016-05-02 23:52:28 +0000,RC,552,9352,11620,-162,-1508,-1549,
327,2016-05-02 23:52:28 +0000,LC,856,8400,10312,-1830,1404,192,2016-05-02 23:52:28 +0000,RC,80,8328,10836,-1785,-473,-458,
328,2016-05-02 23:52:28 +0000,LC,1148,8040,9016,1038,-784,1028,2016-05-02 23:52:28 +0000,RC,284,9104,10528,1154,-266,-1174,
329,2016-05-02 23:52:28 +0000,LC,1204,8676,10268,1733,-912,636,2016-05-02 23:52:28 +0000,RC,-236,9624,12212,1682,-439,-1794,
330,2016-05-02 23:52:28 +0000,LC,968,9660,9308,1682,-1021,312,2016-05-02 23:52:28 +0000,RC,-644,10372,10276,968,-218,-615,
331,2016-05-02 23:52:28 +0000,LC,940,11780,10340,825,-814,1166,2016-05-02 23:52:28 +0000,RC,-352,11280,12580,538,907,486,
332,2016-05-02 23:52:28 +0000,LC,1996,10188,9800,-434,-636,758,2016-05-02 23:52:28 +0000,RC,-240,10796,10988,873,508,-539,
333,2016-05-02 23:52:29 +0000,LC,1640,11388,10100,1194,-1237,-58,2016-05-02 23:52:29 +0000,RC,-132,12240,11136,-356,-38,388,
334,2016-05-02 23:52:29 +0000,LC,1600,11864,9084,-1280,-913,-193,2016-05-02 23:52:29 +0000,RC,48,11640,11360,-196,12,-65,
335,2016-05-02 23:52:29 +0000,LC,2188,11268,9984,-1126,-417,-65,2016-05-02 23:52:29 +0000,RC,256,11872,10600,-317,-408,661,
336,2016-05-02 23:52:29 +0000,LC,2012,10740,10112,-1270,-1978,-760,2016-05-02 23:52:29 +0000,RC,724,11224,10828,-787,-258,-108,
337,2016-05-02 23:52:29 +0000,LC,1928,10368,9476,1582,-4025,-350,2016-05-02 23:52:29 +0000,RC,-36,11452,10424,-1315,349,681,
338,2016-05-02 23:52:29 +0000,LC,2268,9744,8604,-1097,-528,-325,2016-05-02 23:52:29 +0000,RC,860,9920,10704,200,-63,692,
339,2016-05-02 23:52:29 +0000,LC,1468,10660,8564,3096,-742,-1278,2016-05-02 23:52:30 +0000,RC,-160,10060,10908,1717,-653,18,
340,2016-05-02 23:52:30 +0000,LC,1792,10508,8868,-2855,-826,458,2016-05-02 23:52:30 +0000,RC,580,9772,10172,-279,751,875,
341,2016-05-02 23:52:30 +0000,LC,2212,9232,9660,-761,-1433,-546,2016-05-02 23:52:30 +0000,RC,32,12036,11264,20,304,374,
342,2016-05-02 23:52:30 +0000,LC,2608,11320,10496,-1141,-342,-1072,2016-05-02 23:52:30 +0000,RC,-284,12228,11448,-718,477,-216,
343,2016-05-02 23:52:30 +0000,LC,1828,11528,12388,-2468,-268,-991,2016-05-02 23:52:30 +0000,RC,-612,12116,12304,-450,1809,-82,
344,2016-05-02 23:52:30 +0000,LC,2664,11660,13340,-501,-441,-261,2016-05-02 23:52:30 +0000,RC,-188,11548,12732,-94,127,-609,
345,2016-05-02 23:52:30 +0000,LC,1488,12008,13520,-407,-1010,-256,2016-05-02 23:52:30 +0000,RC,428,11476,13796,-1080,-964,-542,
346,2016-05-02 23:52:31 +0000,LC,1084,11728,12876,1267,-1343,328,2016-05-02 23:52:31 +0000,RC,640,11100,14440,-791,-600,-155,
347,2016-05-02 23:52:31 +0000,LC,1840,10968,12980,-1620,-319,1448,2016-05-02 23:52:31 +0000,RC,-376,12312,14136,101,-181,173,
348,2016-05-02 23:52:31 +0000,LC,1988,10116,12664,-1134,-702,688,2016-05-02 23:52:31 +0000,RC,84,11352,13144,-158,403,417,
349,2016-05-02 23:52:31 +0000,LC,1960,9424,13092,138,85,1161,2016-05-02 23:52:31 +0000,RC,-732,10988,11772,-2713,-884,-1232,
350,2016-05-02 23:52:31 +0000,LC,1200,10328,11028,-1083,1339,912,2016-05-02 23:52:31 +0000,RC,632,9316,11664,-437,-25,-304,
351,2016-05-02 23:52:31 +0000,LC,1152,8524,10820,3475,-344,393,2016-05-02 23:52:31 +0000,RC,120,8952,10144,-572,-375,198,
352,2016-05-02 23:52:31 +0000,LC,1392,7476,8340,-1172,144,387,2016-05-02 23:52:32 +0000,RC,412,8908,9404,744,-50,-1239,
353,2016-05-02 23:52:32 +0000,LC,1488,8296,8588,2799,-298,1166,2016-05-02 23:52:32 +0000,RC,376,11084,10680,1756,210,-1360,
354,2016-05-02 23:52:32 +0000,LC,2476,11720,10756,-538,-620,630,2016-05-02 23:52:32 +0000,RC,-404,11984,11376,3133,1207,71,
355,2016-05-02 23:52:32 +0000,LC,1632,9996,9588,2828,-1005,264,2016-05-02 23:52:32 +0000,RC,688,12592,9960,81,388,-775,
356,2016-05-02 23:52:32 +0000,LC,1772,11188,10372,926,-1047,318,2016-05-02 23:52:32 +0000,RC,-340,11436,10856,-871,-149,-119,
357,2016-05-02 23:52:32 +0000,LC,876,11480,10000,583,-1046,515,2016-05-02 23:52:32 +0000,RC,-72,11924,11268,1647,190,-408,
358,2016-05-02 23:52:32 +0000,LC,1488,11388,9844,-268,-1286,-44,2016-05-02 23:52:32 +0000,RC,-836,11728,10632,470,579,403,
359,2016-05-02 23:52:32 +0000,LC,2056,11960,9328,-152,-857,592,2016-05-02 23:52:33 +0000,RC,-732,11952,10468,-138,40,-115,
360,2016-05-02 23:52:33 +0000,LC,2244,11096,9988,-639,-93,-56,2016-05-02 23:52:33 +0000,RC,-296,12220,10124,-1189,319,372,
361,2016-05-02 23:52:33 +0000,LC,1588,11260,8508,148,-1457,-364,2016-05-02 23:52:33 +0000,RC,-184,12068,9340,159,1403,782,
362,2016-05-02 23:52:33 +0000,LC,1680,10168,8824,-1454,-1565,-886,2016-05-02 23:52:33 +0000,RC,-456,10428,9712,-1136,665,1300,
363,2016-05-02 23:52:33 +0000,LC,2228,10056,8184,-1477,-1789,-551,2016-05-02 23:52:33 +0000,RC,380,11496,8600,967,655,672,
364,2016-05-02 23:52:33 +0000,LC,2112,8632,8704,-1103,-129,-1089,2016-05-02 23:52:33 +0000,RC,-36,11032,10200,-1760,-765,826,
365,2016-05-02 23:52:33 +0000,LC,1844,10852,9632,-597,-997,-150,2016-05-02 23:52:33 +0000,RC,208,11420,11492,-1019,460,578,
366,2016-05-02 23:52:34 +0000,LC,1936,11092,10868,-2600,-705,-392,2016-05-02 23:52:34 +0000,RC,-672,12196,11268,-1946,-791,9,
367,2016-05-02 23:52:34 +0000,LC,2740,10900,10916,169,-1096,344,2016-05-02 23:52:34 +0000,RC,1244,11728,11408,-283,-28,684,
368,2016-05-02 23:52:34 +0000,LC,1992,11484,11560,446,-813,-240,2016-05-02 23:52:34 +0000,RC,568,10212,12172,-1242,-936,-38,
369,2016-05-02 23:52:34 +0000,LC,2232,10704,11664,-1035,-307,493,2016-05-02 23:52:34 +0000,RC,1344,13384,14260,-1541,460,563,
370,2016-05-02 23:52:34 +0000,LC,2372,11340,14564,-1977,-765,300,2016-05-02 23:52:34 +0000,RC,1304,12284,15196,-209,-201,-276,
371,2016-05-02 23:52:34 +0000,LC,3116,11060,14368,-1085,-910,562,2016-05-02 23:52:34 +0000,RC,-4,12012,13920,-1453,151,-317,
372,2016-05-02 23:52:34 +0000,LC,2320,10648,12600,-2312,351,890,2016-05-02 23:52:35 +0000,RC,504,11252,13620,-1354,-793,-328,
373,2016-05-02 23:52:35 +0000,LC,1980,10040,12916,-232,-1132,644,2016-05-02 23:52:35 +0000,RC,-1100,10964,12184,1052,-202,-1333,
374,2016-05-02 23:52:35 +0000,LC,1528,9440,12876,-272,1954,1025,2016-05-02 23:52:35 +0000,RC,456,10004,11732,-3142,-650,-171,
375,2016-05-02 23:52:35 +0000,LC,1236,9388,9924,2274,1525,1112,2016-05-02 23:52:35 +0000,RC,376,8356,9216,962,-599,-928,
376,2016-05-02 23:52:35 +0000,LC,1380,7740,7824,-2194,1123,734,2016-05-02 23:52:35 +0000,RC,-56,8532,8032,3906,-94,-1373,
377,2016-05-02 23:52:35 +0000,LC,1940,7612,8496,2886,-626,916,2016-05-02 23:52:35 +0000,RC,820,10536,11304,-2232,-284,548,
378,2016-05-02 23:52:35 +0000,LC,1844,9920,10184,1660,-848,-168,2016-05-02 23:52:35 +0000,RC,-176,10592,12396,2977,1311,-786,
379,2016-05-02 23:52:35 +0000,LC,1780,10280,10780,490,-626,-17,2016-05-02 23:52:36 +0000,RC,-592,10564,10864,355,319,-679,
380,2016-05-02 23:52:36 +0000,LC,1288,10348,10428,1742,-712,-145,2016-05-02 23:52:36 +0000,RC,12,11784,11044,-921,-424,-271,
381,2016-05-02 23:52:36 +0000,LC,1580,10552,10272,1230,-928,69,2016-05-02 23:52:36 +0000,RC,-396,11468,10900,19,-105,-184,
