,LTime, LSensorID, LAccelX, LAccelY, LAccelZ, LGyroX, LGyroY, LGyroZ,RTime, RSensorID, RAccelX, RAccelY, RAccelZ, RGyroX, RGyroY, RGyroZ
112,2016-05-03 20:19:23 +0000,LC,-3388,9600,10560,1720,819,427,2016-05-03 20:19:23 +0000,RC,3020,10024,10084,1331,-139,-1311
113,2016-05-03 20:19:23 +0000,LC,-1004,10872,10372,-174,98,343,2016-05-03 20:19:23 +0000,RC,5360,13416,10280,1874,212,1856
114,2016-05-03 20:19:23 +0000,LC,192,11428,7276,-1527,620,-730,2016-05-03 20:19:23 +0000,RC,6888,11504,8344,-771,47,2376
115,2016-05-03 20:19:23 +0000,LC,2332,11500,11396,-2487,-433,184,2016-05-03 20:19:23 +0000,RC,6612,12916,8340,1462,-53,-460
116,2016-05-03 20:19:24 +0000,LC,-312,11396,9420,2886,-2176,632,2016-05-03 20:19:24 +0000,RC,4792,13400,7388,33,-607,412
117,2016-05-03 20:19:24 +0000,LC,-820,12172,11540,-2524,-459,-46,2016-05-03 20:19:24 +0000,RC,2452,11368,10272,-2792,504,-972
118,2016-05-03 20:19:24 +0000,LC,-3692,10356,9344,102,-416,554,2016-05-03 20:19:24 +0000,RC,3964,15116,8416,2333,587,129
119,2016-05-03 20:19:24 +0000,LC,-1328,11464,11648,821,-160,-983,2016-05-03 20:19:24 +0000,RC,5032,12568,8728,453,35,1319
120,2016-05-03 20:19:24 +0000,LC,-344,10628,8812,3127,-2726,699,2016-05-03 20:19:24 +0000,RC,4716,13580,8528,1290,-557,-2367
121,2016-05-03 20:19:24 +0000,LC,-2056,12260,9720,1,-1028,-174,2016-05-03 20:19:24 +0000,RC,3768,12104,7128,-1240,-771,-807
122,2016-05-03 20:19:24 +0000,LC,-1448,11332,8672,-403,-1045,385,2016-05-03 20:19:25 +0000,RC,4512,12900,8604,192,207,-459
123,2016-05-03 20:19:25 +0000,LC,-1292,11288,8100,-2984,-723,588,2016-05-03 20:19:25 +0000,RC,3048,10212,6428,-476,-15,958
124,2016-05-03 20:19:25 +0000,LC,-1216,9428,8416,-692,55,-989,2016-05-03 20:19:25 +0000,RC,2960,10728,6688,1915,1277,1209
125,2016-05-03 20:19:25 +0000,LC,-1392,9668,8384,-860,-393,330,2016-05-03 20:19:25 +0000,RC,4348,11184,7516,-3378,254,994
126,2016-05-03 20:19:25 +0000,LC,-1532,10028,9720,-1055,-491,-1167,2016-05-03 20:19:25 +0000,RC,4360,12884,9140,-997,816,2563
127,2016-05-03 20:19:25 +0000,LC,-2444,10260,10912,1274,-302,-153,2016-05-03 20:19:25 +0000,RC,6000,14872,11076,-1131,178,430
128,2016-05-03 20:19:25 +0000,LC,-3296,11348,12892,-3953,-256,-1040,2016-05-03 20:19:25 +0000,RC,5808,14088,11844,-553,-749,134
129,2016-05-03 20:19:25 +0000,LC,-3872,11780,15004,-502,-304,241,2016-05-03 20:19:26 +0000,RC,6984,17580,14988,-1828,-157,-653
130,2016-05-03 20:19:26 +0000,LC,-4564,12936,16544,703,-481,-250,2016-05-03 20:19:26 +0000,RC,5888,13660,10660,2776,-143,-1112
131,2016-05-03 20:19:26 +0000,LC,-2924,11464,13620,-270,-637,504,2016-05-03 20:19:26 +0000,RC,4504,12844,10436,-3018,-222,-813
132,2016-05-03 20:19:26 +0000,LC,-3764,10688,11832,1609,-1046,-18,2016-05-03 20:19:26 +0000,RC,5004,11544,9992,783,308,601
133,2016-05-03 20:19:26 +0000,LC,-1696,11160,10352,3038,-689,733,2016-05-03 20:19:26 +0000,RC,4012,10392,5752,3918,430,-2911
134,2016-05-03 20:19:26 +0000,LC,-1048,8048,4404,-337,-434,-379,2016-05-03 20:19:26 +0000,RC,2256,5480,3780,-1675,-43,2274
135,2016-05-03 20:19:26 +0000,LC,88,7676,4956,849,760,24,2016-05-03 20:19:27 +0000,RC,5684,17484,10492,1596,314,-2147
136,2016-05-03 20:19:27 +0000,LC,-2812,12748,11412,922,-486,-570,2016-05-03 20:19:27 +0000,RC,3840,9748,7272,-2257,-1113,164
137,2016-05-03 20:19:27 +0000,LC,-1912,10648,8896,300,-604,1711,2016-05-03 20:19:27 +0000,RC,4580,14160,9720,-187,32,546
138,2016-05-03 20:19:27 +0000,LC,-2024,11308,9404,-1639,-270,-590,2016-05-03 20:19:27 +0000,RC,3464,12144,8716,984,-551,-347
139,2016-05-03 20:19:27 +0000,LC,-2500,11132,8860,-451,-900,458,2016-05-03 20:19:27 +0000,RC,3392,11332,7168,-188,344,282
140,2016-05-03 20:19:27 +0000,LC,-2304,8860,7740,-1081,49,-849,2016-05-03 20:19:27 +0000,RC,3604,10176,7380,-1750,-13,110
141,2016-05-03 20:19:27 +0000,LC,-880,8684,5596,-1166,-742,-740,2016-05-03 20:19:27 +0000,RC,3292,9920,6680,-2510,-78,552
142,2016-05-03 20:19:27 +0000,LC,-2216,8916,8872,-426,-770,-316,2016-05-03 20:19:28 +0000,RC,4140,12360,9460,1275,1045,-121
143,2016-05-03 20:19:28 +0000,LC,-2572,10960,10164,-1880,-67,-1315,2016-05-03 20:19:28 +0000,RC,5660,14532,11248,-1152,606,516
144,2016-05-03 20:19:28 +0000,LC,-4372,12140,13960,-1055,-908,-1210,2016-05-03 20:19:28 +0000,RC,5028,15588,12404,-2391,-174,1018
145,2016-05-03 20:19:28 +0000,LC,-4052,12832,15840,-2694,-810,-312,2016-05-03 20:19:28 +0000,RC,7200,18608,15436,-718,46,-1011
146,2016-05-03 20:19:28 +0000,LC,-4624,13680,15452,1536,-722,50,2016-05-03 20:19:28 +0000,RC,5044,13612,12616,-852,-157,113
147,2016-05-03 20:19:28 +0000,LC,-3184,10684,12772,-222,-686,416,2016-05-03 20:19:28 +0000,RC,5776,13268,10928,-98,-302,-893
148,2016-05-03 20:19:28 +0000,LC,-3008,10360,12440,-411,-162,-248,2016-05-03 20:19:28 +0000,RC,3880,11440,10400,-205,-561,-589
149,2016-05-03 20:19:29 +0000,LC,-2716,9184,10648,652,-803,1157,2016-05-03 20:19:29 +0000,RC,3712,10764,7832,1335,551,-1357
150,2016-05-03 20:19:29 +0000,LC,-2172,9344,8616,2909,-166,1065,2016-05-03 20:19:29 +0000,RC,2456,8128,5696,1604,20,-55
151,2016-05-03 20:19:29 +0000,LC,-1196,4712,3472,560,338,-1510,2016-05-03 20:19:29 +0000,RC,3148,10276,7908,-3885,1000,-2437
152,2016-05-03 20:19:29 +0000,LC,-4184,13288,12336,-1921,-738,2113,2016-05-03 20:19:29 +0000,RC,4056,11664,9848,1178,458,1419
153,2016-05-03 20:19:29 +0000,LC,-1512,8492,8724,-188,111,195,2016-05-03 20:19:29 +0000,RC,4148,12956,8840,2353,8,-878
154,2016-05-03 20:19:29 +0000,LC,-3432,12748,11336,287,-896,321,2016-05-03 20:19:29 +0000,RC,3496,11624,8232,-1772,69,65
155,2016-05-03 20:19:29 +0000,LC,-2492,10064,9616,-554,-209,273,2016-05-03 20:19:30 +0000,RC,3948,12640,9480,1152,-255,63
156,2016-05-03 20:19:30 +0000,LC,-3000,10004,9500,-781,-786,343,2016-05-03 20:19:30 +0000,RC,3364,10336,7064,1092,-206,-13
157,2016-05-03 20:19:30 +0000,LC,-1840,8548,7104,-964,-103,-705,2016-05-03 20:19:30 +0000,RC,2880,8988,6612,-2864,-520,128
158,2016-05-03 20:19:30 +0000,LC,-1956,7856,5780,309,-470,-865,2016-05-03 20:19:30 +0000,RC,3484,10172,7128,-1969,72,-11
159,2016-05-03 20:19:30 +0000,LC,-2924,10080,9416,-1084,-525,-677,2016-05-03 20:19:30 +0000,RC,4200,13096,10172,-1121,188,162
160,2016-05-03 20:19:30 +0000,LC,-3996,10544,11908,-1949,-1155,-57,2016-05-03 20:19:30 +0000,RC,5672,14804,13648,-2586,655,1923
161,2016-05-03 20:19:30 +0000,LC,-5260,10656,14316,-1476,-1534,-561,2016-05-03 20:19:30 +0000,RC,6720,14680,13920,1638,-981,-1370
162,2016-05-03 20:19:30 +0000,LC,-4480,12124,16640,-355,-740,620,2016-05-03 20:19:31 +0000,RC,5688,16348,15004,-3322,18,304
163,2016-05-03 20:19:31 +0000,LC,-5016,11724,16808,-289,-817,-155,2016-05-03 20:19:31 +0000,RC,5888,15004,13584,759,-78,1263
164,2016-05-03 20:19:31 +0000,LC,-3276,9644,13684,242,-609,302,2016-05-03 20:19:31 +0000,RC,5108,11820,11044,2665,-786,-804
165,2016-05-03 20:19:31 +0000,LC,-3368,9908,12220,-176,-472,91,2016-05-03 20:19:31 +0000,RC,4988,11464,10140,-1507,204,566
166,2016-05-03 20:19:31 +0000,LC,-2164,8212,9972,1730,-1064,1217,2016-05-03 20:19:31 +0000,RC,3420,9688,8068,2323,368,-1872
167,2016-05-03 20:19:31 +0000,LC,-2656,7960,7124,1611,-496,943,2016-05-03 20:19:31 +0000,RC,2596,5540,4964,720,130,1040
168,2016-05-03 20:19:31 +0000,LC,-708,6656,5804,1937,196,352,2016-05-03 20:19:31 +0000,RC,5568,16000,10264,1335,-16,-1495
169,2016-05-03 20:19:32 +0000,LC,-3628,11952,10868,1717,-605,-664,2016-05-03 20:19:32 +0000,RC,2936,11112,7976,-1596,314,249
170,2016-05-03 20:19:32 +0000,LC,-3172,10312,9452,-325,-753,1529,2016-05-03 20:19:32 +0000,RC,4052,13568,10488,120,-282,-53
171,2016-05-03 20:19:32 +0000,LC,-2576,10564,9628,-2177,-441,-416,2016-05-03 20:19:32 +0000,RC,3792,11900,8964,-1089,-261,-173
172,2016-05-03 20:19:32 +0000,LC,-3144,11220,10328,844,-395,42,2016-05-03 20:19:32 +0000,RC,3544,12304,8424,163,-287,273
173,2016-05-03 20:19:32 +0000,LC,-2272,9832,9544,-2239,-373,80,2016-05-03 20:19:32 +0000,RC,3476,12344,8136,-681,279,35
174,2016-05-03 20:19:32 +0000,LC,-2868,9188,8636,71,-780,-148,2016-05-03 20:19:32 +0000,RC,3044,8476,6384,-1514,253,932
175,2016-05-03 20:19:32 +0000,LC,-1392,6976,5896,-422,-753,-182,2016-05-03 20:19:33 +0000,RC,3216,9376,7012,-1190,164,-100
176,2016-05-03 20:19:33 +0000,LC,-2340,8968,7512,-2731,-926,-61,2016-05-03 20:19:33 +0000,RC,4520,11588,10076,-1682,255,708
177,2016-05-03 20:19:33 +0000,LC,-2488,8796,11860,-4061,252,-1160,2016-05-03 20:19:33 +0000,RC,5108,12960,13044,-915,-494,813
178,2016-05-03 20:19:33 +0000,LC,-5556,10196,16052,-958,-1955,318,2016-05-03 20:19:33 +0000,RC,6680,16968,15944,276,-171,888
179,2016-05-03 20:19:33 +0000,LC,-6036,11972,17716,821,-1339,988,2016-05-03 20:19:33 +0000,RC,7200,16784,17144,-1789,-169,-799
180,2016-05-03 20:19:33 +0000,LC,-4892,12356,16744,-351,-521,-508,2016-05-03 20:19:33 +0000,RC,6496,13516,12084,2655,-238,562
181,2016-05-03 20:19:33 +0000,LC,-2628,9956,13552,-128,-616,264,2016-05-03 20:19:33 +0000,RC,5124,12404,10832,-1536,-347,-1023
182,2016-05-03 20:19:33 +0000,LC,-3260,9172,12800,1400,-311,192,2016-05-03 20:19:34 +0000,RC,4992,10628,9732,-279,304,-1222
183,2016-05-03 20:19:34 +0000,LC,-2208,8400,9556,1813,-180,520,2016-05-03 20:19:34 +0000,RC,3556,9088,6232,3508,195,-886
184,2016-05-03 20:19:34 +0000,LC,-1948,5728,5572,4052,-114,-264,2016-05-03 20:19:34 +0000,RC,2108,7096,4512,1421,453,-492
185,2016-05-03 20:19:34 +0000,LC,-1728,8776,7316,71,65,1889,2016-05-03 20:19:34 +0000,RC,4464,16212,9828,-332,-220,-314
186,2016-05-03 20:19:34 +0000,LC,-3184,11408,9608,-270,-685,-1425,2016-05-03 20:19:34 +0000,RC,3448,11696,7436,-2631,-86,-53
187,2016-05-03 20:19:34 +0000,LC,-2988,11340,10252,-1484,-676,399,2016-05-03 20:19:34 +0000,RC,4140,13128,10496,-1324,-192,400
188,2016-05-03 20:19:34 +0000,LC,-3088,10208,10120,-1947,-823,149,2016-05-03 20:19:34 +0000,RC,3940,11936,9656,1565,-292,-227
189,2016-05-03 20:19:35 +0000,LC,-3416,10624,10512,1166,-777,401,2016-05-03 20:19:35 +0000,RC,3688,12008,8600,-205,243,-358
190,2016-05-03 20:19:35 +0000,LC,-3240,9952,9972,-460,-234,-52,2016-05-03 20:19:35 +0000,RC,3980,12576,9364,-2167,213,-176
191,2016-05-03 20:19:35 +0000,LC,-2992,9892,8076,784,-1145,-382,2016-05-03 20:19:35 +0000,RC,2512,7744,5996,-483,-19,1257
192,2016-05-03 20:19:35 +0000,LC,-976,6656,4960,-759,-143,277,2016-05-03 20:19:35 +0000,RC,3008,8684,6032,-483,-118,1013
193,2016-05-03 20:19:35 +0000,LC,-2356,6636,7580,-3113,-84,-366,2016-05-03 20:19:35 +0000,RC,4676,10144,9572,-2888,782,-980
194,2016-05-03 20:19:35 +0000,LC,-4572,10056,12944,-3488,-736,-227,2016-05-03 20:19:35 +0000,RC,5796,15032,14280,-1068,996,727
195,2016-05-03 20:19:35 +0000,LC,-5600,11796,17136,-1223,-451,-643,2016-05-03 20:19:36 +0000,RC,5896,16708,14748,2177,870,-1676
196,2016-05-03 20:19:36 +0000,LC,-6252,13956,19180,55,-591,382,2016-05-03 20:19:36 +0000,RC,5760,16244,15284,-2125,501,282
197,2016-05-03 20:19:36 +0000,LC,-5468,11940,16848,636,-555,564,2016-05-03 20:19:36 +0000,RC,5492,13172,12748,-597,-101,-465
198,2016-05-03 20:19:36 +0000,LC,-4272,9752,11972,1150,-470,169,2016-05-03 20:19:36 +0000,RC,5156,11820,11524,-1031,-8,535
199,2016-05-03 20:19:36 +0000,LC,-3468,9088,11840,689,-369,-180,2016-05-03 20:19:36 +0000,RC,4184,9868,8180,1208,-128,-822
200,2016-05-03 20:19:36 +0000,LC,-2112,6840,7112,1214,-1288,1587,2016-05-03 20:19:36 +0000,RC,3392,7572,6688,2955,-213,-705
201,2016-05-03 20:19:36 +0000,LC,-1636,5640,3896,2113,-67,-1392,2016-05-03 20:19:36 +0000,RC,2184,9620,7052,-1152,533,-2056
202,2016-05-03 20:19:36 +0000,LC,-4280,12152,11344,-1565,-845,4156,2016-05-03 20:19:37 +0000,RC,4108,13908,11192,49,1757,1502
203,2016-05-03 20:19:37 +0000,LC,-2756,9072,7360,-667,-919,-411,2016-05-03 20:19:37 +0000,RC,3200,12464,9036,1434,407,-1582
204,2016-05-03 20:19:37 +0000,LC,-5084,11272,11888,-333,-530,787,2016-05-03 20:19:37 +0000,RC,3724,11728,9044,-2496,69,386
205,2016-05-03 20:19:37 +0000,LC,-2600,9708,9488,-1291,353,150,2016-05-03 20:19:37 +0000,RC,6064,13968,9220,1161,1396,-28
206,2016-05-03 20:19:37 +0000,LC,-1468,11832,10588,-522,711,-1515,2016-05-03 20:19:37 +0000,RC,4796,10968,7104,-2395,-418,1409
207,2016-05-03 20:19:37 +0000,LC,-1104,9792,8684,3981,-1190,-463,2016-05-03 20:19:37 +0000,RC,3804,12372,10780,766,-531,-606
208,2016-05-03 20:19:37 +0000,LC,-3300,11308,10568,-166,-621,-1105,2016-05-03 20:19:38 +0000,RC,2908,11704,10024,-579,-10,-857
209,2016-05-03 20:19:38 +0000,LC,-4812,10148,8748,-806,-305,-56,2016-05-03 20:19:38 +0000,RC,2508,11812,10684,-292,-465,769
210,2016-05-03 20:19:38 +0000,LC,-4736,10124,9760,-1365,-1437,-174,2016-05-03 20:19:38 +0000,RC,3332,11688,9816,2668,-458,-1011
211,2016-05-03 20:19:38 +0000,LC,-4252,9792,9816,-1149,-630,547,2016-05-03 20:19:38 +0000,RC,4652,12928,9184,-58,-207,1444
212,2016-05-03 20:19:38 +0000,LC,-2108,9748,10792,-1262,-501,-266,2016-05-03 20:19:38 +0000,RC,4960,12232,8408,-1754,372,993
213,2016-05-03 20:19:38 +0000,LC,-1456,10752,10272,2396,-2048,406,2016-05-03 20:21:19 +0000,RC,3944,9016,12244,-1785,3070,-79
