,LTime, LSensorID, LAccelX, LAccelY, LAccelZ, LGyroX, LGyroY, LGyroZ,RTime, RSensorID, RAccelX, RAccelY, RAccelZ, RGyroX, RGyroY, RGyroZ, 
77,2016-05-05 01:55:06 +0000,LC,8208,12184,6724,-92,-927,-125,2016-05-05 01:55:06 +0000,RC,-5196,12796,7788,13,22,-238,
78,2016-05-05 01:56:25 +0000,LC,4380,12296,8184,-749,792,-78,2016-05-05 01:56:25 +0000,RC,-2972,12244,9868,-1905,-565,-10,
79,2016-05-05 01:56:25 +0000,LC,4884,12568,6304,-33,-465,391,2016-05-05 01:56:25 +0000,RC,-2088,11276,9652,-339,107,-736,
80,2016-05-05 01:56:25 +0000,LC,3836,14372,7652,-1496,-112,1165,2016-05-05 01:56:25 +0000,RC,-516,12064,11112,-2081,-2033,706,
81,2016-05-05 01:56:25 +0000,LC,2716,11776,8200,-3160,359,-529,2016-05-05 01:56:25 +0000,RC,-2116,14068,10848,3425,631,115,
82,2016-05-05 01:56:25 +0000,LC,2932,13880,8396,4265,-1776,710,2016-05-05 01:56:25 +0000,RC,-2480,12992,9728,-432,-643,-800,
83,2016-05-05 01:56:26 +0000,LC,3036,12000,6592,-633,-236,-246,2016-05-05 01:56:25 +0000,RC,-2196,11844,9072,-295,-1077,-292,
84,2016-05-05 01:56:26 +0000,LC,3376,13232,8468,-1148,-775,-260,2016-05-05 01:56:26 +0000,RC,-2092,13432,9596,409,515,-406,
85,2016-05-05 01:56:26 +0000,LC,3168,13000,7568,535,-183,286,2016-05-05 01:56:26 +0000,RC,-2332,12960,9736,-878,-497,-553,
86,2016-05-05 01:56:26 +0000,LC,3268,12960,7364,-927,-176,-56,2016-05-05 01:56:26 +0000,RC,-2584,13048,8932,-500,-202,-246,
87,2016-05-05 01:56:26 +0000,LC,3204,12840,6688,-90,-783,130,2016-05-05 01:56:26 +0000,RC,-2440,12760,8516,-311,-189,37,
88,2016-05-05 01:56:26 +0000,LC,2516,9372,4380,-1170,-803,34,2016-05-05 01:56:26 +0000,RC,-1872,9860,5672,1184,1212,258,
89,2016-05-05 01:56:26 +0000,LC,3424,10272,4832,1907,-1219,-244,2016-05-05 01:56:26 +0000,RC,-1924,10008,5588,3650,2305,1195,
90,2016-05-05 01:56:27 +0000,LC,3136,13236,6568,1995,-2348,-1546,2016-05-05 01:56:27 +0000,RC,-2748,12616,7992,1321,2444,1333,
91,2016-05-05 01:56:27 +0000,LC,3700,15204,8468,-1002,-1559,-1067,2016-05-05 01:56:27 +0000,RC,-3380,15096,7564,2126,2186,1962,
92,2016-05-05 01:56:27 +0000,LC,3284,16436,9448,-374,-877,-1100,2016-05-05 01:56:27 +0000,RC,-3696,17596,7716,1202,2097,490,
93,2016-05-05 01:56:27 +0000,LC,3336,15844,9668,167,-344,175,2016-05-05 01:56:27 +0000,RC,-3160,17632,8484,-3738,-617,-65,
94,2016-05-05 01:56:27 +0000,LC,2952,15044,8320,-1386,970,288,2016-05-05 01:56:27 +0000,RC,-3024,17272,8516,-641,401,-707,
95,2016-05-05 01:56:27 +0000,LC,3080,15584,9412,-2516,481,553,2016-05-05 01:56:27 +0000,RC,-3220,17016,8328,-2257,-418,-496,
96,2016-05-05 01:56:28 +0000,LC,2620,15844,10212,-204,530,447,2016-05-05 01:56:27 +0000,RC,-3408,16772,9056,-161,-224,-111,
97,2016-05-05 01:56:28 +0000,LC,2820,13160,7904,-239,521,2055,2016-05-05 01:56:28 +0000,RC,-3756,16460,9164,343,-807,-992,
98,2016-05-05 01:56:28 +0000,LC,1684,8736,3900,511,-359,912,2016-05-05 01:56:28 +0000,RC,-3028,12164,6548,-767,-286,-1166,
99,2016-05-05 01:56:28 +0000,LC,1656,7688,4040,-1897,-256,716,2016-05-05 01:56:28 +0000,RC,-1144,7796,4284,-1902,-3453,-758,
100,2016-05-05 01:56:28 +0000,LC,2940,15336,8824,3887,-2111,167,2016-05-05 01:56:28 +0000,RC,-3184,11088,7700,-109,5,-714,
101,2016-05-05 01:56:28 +0000,LC,3664,12648,7444,-2835,-80,555,2016-05-05 01:56:28 +0000,RC,-2364,12536,7740,1299,274,465,
102,2016-05-05 01:56:28 +0000,LC,2996,8104,4568,32,439,-448,2016-05-05 01:56:28 +0000,RC,-2312,15292,6744,1885,645,484,
103,2016-05-05 01:56:29 +0000,LC,1876,9224,5156,4154,-1941,-1132,2016-05-05 01:56:28 +0000,RC,-1344,8492,2524,3995,2872,1157,
104,2016-05-05 01:56:29 +0000,LC,3332,12808,5360,618,-1281,-1227,2016-05-05 01:56:29 +0000,RC,-2188,12248,5184,1147,952,831,
105,2016-05-05 01:56:29 +0000,LC,3440,16612,7388,434,-1624,-1086,2016-05-05 01:56:29 +0000,RC,-3736,16036,5456,823,1358,275,
106,2016-05-05 01:56:29 +0000,LC,3340,16772,8816,-378,-1188,-580,2016-05-05 01:56:29 +0000,RC,-4048,18332,6480,-1899,1135,1026,
107,2016-05-05 01:56:29 +0000,LC,3500,16360,8460,-1085,206,-165,2016-05-05 01:56:29 +0000,RC,-3216,18112,7224,-461,160,-629,
108,2016-05-05 01:56:29 +0000,LC,3140,15516,8844,-1287,-91,147,2016-05-05 01:56:29 +0000,RC,-3288,17908,7148,-2426,-764,-256,
109,2016-05-05 01:56:29 +0000,LC,2692,14876,8920,-1259,-228,656,2016-05-05 01:56:29 +0000,RC,-3460,16444,7932,-1025,-4,74,
110,2016-05-05 01:56:30 +0000,LC,2652,15764,9804,365,-786,823,2016-05-05 01:56:30 +0000,RC,-3364,16900,8204,-1246,-669,-308,
111,2016-05-05 01:56:30 +0000,LC,2808,13920,8456,-245,846,1388,2016-05-05 01:56:30 +0000,RC,-3720,17364,8564,-24,-690,-577,
112,2016-05-05 01:56:30 +0000,LC,1656,8564,3732,-336,-238,796,2016-05-05 01:56:30 +0000,RC,-2916,13772,6192,-659,-2216,-1436,
113,2016-05-05 01:56:30 +0000,LC,2404,8296,3984,-3522,-927,746,2016-05-05 01:56:30 +0000,RC,-1468,7420,1912,-1960,-1029,-646,
114,2016-05-05 01:56:30 +0000,LC,3720,12908,9076,1898,-937,-372,2016-05-05 01:56:30 +0000,RC,-2964,12608,6816,1234,1063,-932,
115,2016-05-05 01:56:30 +0000,LC,3776,13844,6700,2360,-1257,-200,2016-05-05 01:56:30 +0000,RC,-2472,13060,7380,-2286,-991,-177,
116,2016-05-05 01:56:31 +0000,LC,2304,9692,4304,1091,-1538,-368,2016-05-05 01:56:30 +0000,RC,-2292,13604,6780,814,584,233,
117,2016-05-05 01:56:31 +0000,LC,1712,9100,4140,-2509,-704,-176,2016-05-05 01:56:31 +0000,RC,-884,8664,1964,-831,1399,1167,
118,2016-05-05 01:56:31 +0000,LC,2188,13656,7760,-468,-1355,-1753,2016-05-05 01:56:31 +0000,RC,-1700,12824,3940,299,2050,1282,
119,2016-05-05 01:56:31 +0000,LC,2644,14700,9052,1261,-967,-15,2016-05-05 01:56:31 +0000,RC,-2948,15936,7148,2276,354,1510,
120,2016-05-05 01:56:31 +0000,LC,3500,17100,10120,-2046,-307,-584,2016-05-05 01:56:31 +0000,RC,-3056,16340,7492,-1040,-147,474,
121,2016-05-05 01:56:31 +0000,LC,3720,17076,11096,247,-544,-6,2016-05-05 01:56:31 +0000,RC,-3132,18588,9572,632,1102,1597,
122,2016-05-05 01:56:31 +0000,LC,2920,15076,8748,-676,-82,64,2016-05-05 01:56:31 +0000,RC,-3056,18592,8928,-1324,-657,-818,
123,2016-05-05 01:56:32 +0000,LC,2564,14868,9584,-1003,-74,213,2016-05-05 01:56:32 +0000,RC,-3256,16356,8320,-1742,-70,-522,
124,2016-05-05 01:56:32 +0000,LC,2452,15540,9920,789,-529,616,2016-05-05 01:56:32 +0000,RC,-3224,16384,8976,-248,-235,-293,
125,2016-05-05 01:56:32 +0000,LC,2792,13328,7672,1234,164,1121,2016-05-05 01:56:32 +0000,RC,-3656,17184,8832,1131,-207,-577,
126,2016-05-05 01:56:32 +0000,LC,1996,7116,3088,-1774,309,1190,2016-05-05 01:56:32 +0000,RC,-1948,11048,6148,-1730,-2060,-1327,
127,2016-05-05 01:56:32 +0000,LC,3524,8816,4824,-3029,-757,1326,2016-05-05 01:56:32 +0000,RC,-968,7488,2600,-1489,-879,-271,
128,2016-05-05 01:56:32 +0000,LC,3132,13008,8084,1757,-617,46,2016-05-05 01:56:32 +0000,RC,-2836,15148,7352,861,819,-770,
129,2016-05-05 01:56:33 +0000,LC,2904,14200,7848,925,-946,-449,2016-05-05 01:56:32 +0000,RC,-2656,12140,6780,-2038,-1447,43,
130,2016-05-05 01:56:33 +0000,LC,3252,11348,5864,-715,-538,70,2016-05-05 01:56:33 +0000,RC,-2744,13388,7796,470,610,-150,
131,2016-05-05 01:56:33 +0000,LC,2244,7192,4220,535,-1621,-1205,2016-05-05 01:56:33 +0000,RC,-1012,9992,4272,1226,500,760,
132,2016-05-05 01:56:33 +0000,LC,2696,10556,6828,266,-784,-977,2016-05-05 01:56:33 +0000,RC,-1676,11700,5148,-10,1238,-198,
133,2016-05-05 01:56:33 +0000,LC,3420,15220,8800,1754,-1565,-34,2016-05-05 01:56:33 +0000,RC,-3328,12848,6916,-175,-226,413,
134,2016-05-05 01:56:33 +0000,LC,2856,16292,9384,-719,-627,-508,2016-05-05 01:56:33 +0000,RC,-3404,16288,7876,421,992,-88,
135,2016-05-05 01:56:33 +0000,LC,3320,16864,10576,-804,-270,166,2016-05-05 01:56:33 +0000,RC,-3488,17824,9216,-2007,410,281,
136,2016-05-05 01:56:34 +0000,LC,2628,15984,8752,-741,-129,218,2016-05-05 01:56:33 +0000,RC,-3564,18484,9224,1950,633,-248,
137,2016-05-05 01:56:34 +0000,LC,2964,15204,9032,-1779,-357,295,2016-05-05 01:56:34 +0000,RC,-3616,17116,7948,-2465,-679,-390,
138,2016-05-05 01:56:34 +0000,LC,2792,14844,9296,-38,-520,740,2016-05-05 01:56:34 +0000,RC,-2780,16336,7768,151,-501,-101,
139,2016-05-05 01:56:34 +0000,LC,3712,14372,8564,3112,-1076,1920,2016-05-05 01:56:34 +0000,RC,-3524,16944,8152,380,-664,-529,
140,2016-05-05 01:56:34 +0000,LC,2672,8448,4072,-438,507,1660,2016-05-05 01:56:34 +0000,RC,-3348,14396,7048,741,-555,-1420,
141,2016-05-05 01:56:34 +0000,LC,2316,7068,3812,-3911,507,-28,2016-05-05 01:56:34 +0000,RC,-1540,8028,3516,-2929,-1009,-1007,
142,2016-05-05 01:56:34 +0000,LC,3108,15444,8256,1230,-1240,-501,2016-05-05 01:56:34 +0000,RC,-2148,10204,4400,-2629,-1245,-1370,
143,2016-05-05 01:56:35 +0000,LC,2676,13192,7680,-818,-1215,143,2016-05-05 01:56:35 +0000,RC,-3676,13396,9672,-161,491,6,
144,2016-05-05 01:56:35 +0000,LC,3572,10028,8056,-1529,441,-514,2016-05-05 01:56:35 +0000,RC,-2892,14512,7700,-302,485,-81,
145,2016-05-05 01:56:35 +0000,LC,1392,6472,4476,1005,-1039,-1864,2016-05-05 01:56:35 +0000,RC,-3140,11036,5972,350,-125,-594,
146,2016-05-05 01:56:35 +0000,LC,2064,11624,5684,-1337,-1356,-1238,2016-05-05 01:56:35 +0000,RC,-2724,6628,6404,-1668,780,-587,
147,2016-05-05 01:56:35 +0000,LC,3068,13528,10388,348,-2465,-1594,2016-05-05 01:56:35 +0000,RC,-2648,12040,8356,-164,2577,812,
148,2016-05-05 01:56:35 +0000,LC,3848,15016,10356,1397,-1404,-357,2016-05-05 01:56:35 +0000,RC,-4412,14060,9972,576,1081,295,
149,2016-05-05 01:56:36 +0000,LC,3220,16748,11404,410,-803,-213,2016-05-05 01:56:35 +0000,RC,-3900,16892,9708,1234,1064,880,
150,2016-05-05 01:56:36 +0000,LC,3224,15408,9572,-500,-255,116,2016-05-05 01:56:36 +0000,RC,-3944,17856,10132,-940,314,172,
151,2016-05-05 01:56:36 +0000,LC,2672,14624,9440,-885,-657,-34,2016-05-05 01:56:36 +0000,RC,-3504,17360,8764,691,163,-101,
152,2016-05-05 01:56:36 +0000,LC,2888,14464,9824,-496,-178,476,2016-05-05 01:56:36 +0000,RC,-3640,15856,8456,-1957,-637,-462,
153,2016-05-05 01:56:36 +0000,LC,3032,15140,10224,-557,36,950,2016-05-05 01:56:36 +0000,RC,-3724,15736,8944,594,-393,-165,
154,2016-05-05 01:56:36 +0000,LC,2768,12640,8108,411,608,2023,2016-05-05 01:56:36 +0000,RC,-3744,16868,9112,895,-620,-619,
155,2016-05-05 01:56:36 +0000,LC,1484,5456,1256,-1033,240,1184,2016-05-05 01:56:36 +0000,RC,-3164,13680,7596,-959,-1674,-1398,
156,2016-05-05 01:56:37 +0000,LC,4184,13740,9556,-1013,-1505,1374,2016-05-05 01:56:36 +0000,RC,-488,5220,1068,-1213,-909,-811,
157,2016-05-05 01:56:37 +0000,LC,3976,8868,8096,-2837,378,662,2016-05-05 01:56:37 +0000,RC,-3456,14792,8708,-59,822,-1671,
158,2016-05-05 01:56:37 +0000,LC,3900,12788,9996,1639,-927,-220,2016-05-05 01:56:37 +0000,RC,-3344,11144,8468,-2193,-842,-237,
159,2016-05-05 01:56:37 +0000,LC,2880,13268,7532,588,-1038,569,2016-05-05 01:56:37 +0000,RC,-4080,13900,8524,914,286,-164,
